timestamp,baroPressurePa,baroTemperatureK,baroAltitudeM,ax,ay,az,vx,vy,vz,batt
160955,103243.00537109375,298.1800006866455,-163.9613142891467,-1.3934253662109375,-0.3447650390625,10.070012182617187,-0.04769678235964202,-0.04063552724259461,-0.0038637060471828776,12.404580116271973
161012,103242.00439453125,298.2899993896484,-163.93684520500048,-1.3215993164062498,-0.229843359375,10.117896215820313,-0.03264165391774747,-0.040502298447874195,-0.028644717255323898,12.404580116271973
161069,103245.99609375,298.3799995422363,-164.32518836794506,-1.37906015625,-0.27293898925781246,9.95987890625,-0.007327718428123398,0.02637978613318477,0.03797090557510503,12.359142303466797
161126,103250.0,298.4499992370605,-164.70372441867084,-1.3120225097656248,-0.33039982910156246,9.935936889648437,-0.02997703016966329,-0.007993874365144442,0.027978560798154202,12.450018882751465
161183,103252.001953125,298.51000061035154,-164.90685992140612,-1.4125789794921875,-0.2442085693359375,10.050858569335936,-0.023049003847336293,0.03450689033334693,0.02371516030450599,12.359142303466797
161241,103255.0048828125,298.54999961853025,-165.18402025586306,-1.407790576171875,-0.28730419921875,10.065223779296874,-0.040102603741334536,0.018652374558967667,-0.005862174638468988,12.404580116271973
161298,103257.99560546875,298.5900005340576,-165.46020703948668,-1.4987702392578124,-0.40222587890625,9.9981861328125,-0.0314425718787231,-0.002398162257528468,0.04343338602718301,12.404580116271973
161355,103257.99560546875,298.61999931335447,-165.47683051724718,-1.2880804931640624,-0.277727392578125,9.9215716796875,0.0021316998567126174,0.002531393652992137,-0.05302603401699958,12.404580116271973
161412,103259.99755859375,298.65,-165.66354704825864,-1.3311761230468748,-0.26336218261718747,9.993397729492187,0.02105053655642181,-0.0005329249641781544,-0.05782235801190787,12.450018882751465
161469,103257.99560546875,298.67000045776365,-165.5045380750735,-1.3742717529296875,-0.32082302246093747,9.907206469726562,0.018519141603058047,0.0037304746517192082,-0.056356816302848056,12.404580116271973
161526,103260.99853515625,298.6900009155273,-165.7707922641537,-1.3455413330078123,-0.3064578125,10.031704956054687,-0.011857580152252994,-0.001199081128764234,-0.017186829729015956,12.404580116271973
161583,103258.99658203125,298.6999992370605,-165.60622212301828,-1.3455413330078123,-0.3112462158203125,10.046070166015625,0.019451761891452382,-0.01665390518745858,0.006661561970953703,12.404580116271973
161640,103257.99560546875,298.70999946594236,-165.5267030643993,-1.407790576171875,-0.354341845703125,9.988609326171874,-0.020917305681106793,0.00852679942685047,0.06821439541480376,12.49545669555664
161698,103259.99755859375,298.7199996948242,-165.70237643964276,-1.3407529296874998,-0.27293898925781246,10.09395419921875,0.01545482418873151,0.009725880945726191,0.011457886486010638,12.404580116271973
161755,103263.00048828125,298.72999992370603,-165.9631249774682,-1.4604630126953124,-0.17238251953125,9.9981861328125,0.006794793366417372,-0.05302603401699958,-0.014522204940634477,12.450018882751465
161812,103258.99658203125,298.74000015258787,-165.62839956030945,-1.2832920898437499,-0.28730419921875,9.993397729492187,0.0021316998567126174,0.037038283206116095,0.005329249576762962,12.450018882751465
161869,103258.99658203125,298.7500003814697,-165.6339439196322,-1.3359645263671873,-0.32082302246093747,9.974244116210937,-0.009725880945726191,0.07007963599159242,-0.05782235801190787,12.450018882751465
161926,103259.99755859375,298.7500003814697,-165.71901806081667,-1.455674609375,-0.3687070556640625,9.9981861328125,0.001465543659617247,-0.013589586732834743,-0.03450689033334693,12.404580116271973
161984,103261.99951171875,298.76000061035154,-165.89471724231507,-1.3359645263671873,-0.24899697265624998,9.983820922851562,-0.020117918348622078,0.004663093639741917,0.01985145451739744,12.404580116271973
162041,103260.99853515625,298.76000061035154,-165.80964158898442,-1.3072341064453123,-0.1484405029296875,10.05564697265625,0.02131699830705185,-0.020517610974567134,-0.030376722795608345,12.450018882751465
162098,103263.00048828125,298.7700008392334,-165.98534797798564,-1.3168109130859373,-0.33039982910156246,10.012551342773437,0.0034640123809405203,0.03290811566837751,-0.06554976958612498,12.450018882751465
162155,103261.99951171875,298.7700008392334,-165.90027014477627,-1.3359645263671873,-0.316034619140625,10.007762939453125,0.0034640123809405203,0.007993874365144442,0.009192955363871514,12.359142303466797
162212,103259.99755859375,298.7700008392334,-165.73011247493255,-1.350329736328125,-0.3447650390625,10.022128149414062,0.027312404340984506,-0.005062787305984274,-0.01572128593936155,12.404580116271973
162270,103265.00244140625,298.7799991607666,-166.16106202571203,-1.2785036865234374,-0.2346317626953125,10.05564697265625,-0.025713629676015076,-0.055557426889768745,-0.024248085886360668,12.404580116271973
162327,103261.99951171875,298.7799991607666,-165.9058219881297,-1.3646949462890625,-0.373495458984375,10.007762939453125,-0.007594180698902086,0.04143491665567393,-0.015987748730288884,12.450018882751465
162384,103263.00048828125,298.7899993896484,-165.99645841859336,-1.407790576171875,-0.22026655273437498,10.041281762695311,0.0033307809854768514,0.0034640123809405203,-0.08806585201279579,12.404580116271973
162441,103260.99853515625,298.7899993896484,-165.82629069473202,-1.446097802734375,-0.1771709228515625,9.931148486328125,-0.014788667731561815,-0.023981624135730628,-0.004130168578035891,12.404580116271973
162498,103263.00048828125,298.7899993896484,-165.99645841859336,-1.4508862060546874,-0.26336218261718747,9.955090502929687,-0.020251149223937098,-0.023315467678560933,0.0015987749250437537,12.450018882751465
162555,103263.00048828125,298.7899993896484,-165.99645841859336,-1.3263877197265623,-0.201112939453125,9.926360083007811,-0.03650535970485602,-0.013056661150980066,0.055024503388508665,12.404580116271973
162613,103261.99951171875,298.79999961853025,-165.91692779305217,-1.3215993164062498,-0.43574470214843747,10.09395419921875,-0.014788667731561815,0.01532159227311919,-0.031176110128093057,12.450018882751465
162670,103260.99853515625,298.7899993896484,-165.82629069473202,-1.4125789794921875,-0.354341845703125,10.05564697265625,0.013323123941907405,0.02371516030450599,-0.0074609493034384165,12.450018882751465
162727,103260.99853515625,298.79999961853025,-165.83184074950282,-1.3359645263671873,-0.28730419921875,10.065223779296874,-0.0015987749250437537,0.005062787305984274,0.014388974065319457,12.450018882751465
162784,103263.00048828125,298.79999961853025,-166.00201416872272,-1.3551181396484375,-0.36391865234375,9.907206469726562,-0.019052067184912723,-0.0074609493034384165,0.031042879252778037,12.404580116271973
162841,103261.99951171875,298.79999961853025,-165.91692779305217,-1.4030021728515625,-0.21068974609375,10.012551342773437,0.038637057871085526,-0.04130168369976431,-0.03130934100340808,12.404580116271973
162898,103264.00146484375,298.8099998474121,-166.09265847431,-1.4508862060546874,-0.201112939453125,9.993397729492187,-0.005329249576762962,-0.050228179393600386,-0.07167840649537265,12.450018882751465
162956,103257.99560546875,298.79999961853025,-165.57657561155136,-1.2976572998046874,-0.2346317626953125,9.859322436523437,0.001465543659617247,-0.01811944897711299,0.014255743190004439,12.450018882751465
163013,103260.99853515625,298.8099998474121,-165.8373908042736,-1.3311761230468748,-0.316034619140625,9.955090502929687,0.0037304746517192082,-0.03050995367092336,-0.01532159227311919,12.404580116271973
163070,103263.00048828125,298.8099998474121,-166.00756991885208,-1.254561669921875,-0.22026655273437498,9.945513696289062,-0.046497702401212246,0.04809647706618168,-0.040502298447874195,12.450018882751465
163127,103263.00048828125,298.8099998474121,-166.00756991885208,-1.3359645263671873,-0.1771709228515625,9.95987890625,-0.022649311221391237,0.02198315476422154,-0.015987748730288884,12.404580116271973
163184,103265.00244140625,298.8099998474121,-166.17774636190762,-1.388636962890625,-0.3016694091796875,10.007762939453125,-0.01811944897711299,0.062085758505556074,0.08140428744109884,12.404580116271973
163241,103264.00146484375,298.8099998474121,-166.09265847431,-1.2832920898437499,-0.2059013427734375,9.983820922851562,-0.054891270432599046,0.05009494643769076,0.05755589626127783,12.450018882751465
163299,103261.99951171875,298.8099998474121,-165.92248069551343,-1.3215993164062498,-0.27293898925781246,10.031704956054687,0.01971822364208242,-0.02558039880070006,0.03224195921120781,12.404580116271973
163356,103261.99951171875,298.8099998474121,-165.92248069551343,-1.3934253662109375,-0.33039982910156246,10.060435375976562,-0.026246555257869755,-0.022382847390166598,0.024914242343530364,12.450018882751465
163413,103263.00048828125,298.8099998474121,-166.00756991885208,-1.3120225097656248,-0.3112462158203125,9.964667309570311,-0.014388974065319457,0.0167871360627736,-0.030110261044978305,12.404580116271973
163470,103264.00146484375,298.8099998474121,-166.09265847431,-1.3455413330078123,-0.296881005859375,10.103531005859374,0.036372126748946396,0.061552835004296,0.009059724488556496,12.404580116271973
163527,103258.99658203125,298.8200000762939,-165.6727533774133,-1.4221557861328125,-0.296881005859375,9.964667309570311,-0.0034640123809405203,-0.007594180698902086,-0.027312404340984506,12.450018882751465
163584,103266.00341796875,298.8200000762939,-166.2683978746445,-1.4125789794921875,-0.1867477294921875,9.988609326171874,-0.028911179005953934,0.0074609493034384165,-0.04609800769467259,12.450018882751465
163641,103261.99951171875,298.8200000762939,-165.92803359797466,-1.2593500732421874,-0.32082302246093747,9.974244116210937,-0.022782542096706257,0.002664624788381481,-0.005062787305984274,12.359142303466797
163698,103265.00244140625,298.8200000762939,-166.18330780730616,-1.39821376953125,-0.316034619140625,10.026916552734374,0.02211638563953656,0.005862174638468988,0.01971822364208242,12.450018882751465
163756,103264.00146484375,298.8200000762939,-166.09821707208513,-1.3120225097656248,-0.28730419921875,9.993397729492187,-0.03317457949960215,0.03330781037491716,-0.008127105760608112,12.404580116271973
163813,103261.99951171875,298.8200000762939,-165.92803359797466,-1.3838485595703125,-0.354341845703125,9.950302099609374,0.010924961944453263,-0.05609035039102882,-0.018785605434282687,12.450018882751465
163870,103261.99951171875,298.8200000762939,-165.92803359797466,-1.3407529296874998,-0.36391865234375,9.873687646484374,-0.0901975460178361,0.00985911182104121,0.001199081128764234,12.450018882751465
163927,103261.99951171875,298.8200000762939,-165.92803359797466,-1.3551181396484375,-0.36391865234375,9.94072529296875,0.044765694780333196,-0.021450229182366866,-0.08580091672946746,12.404580116271973
163984,103266.00341796875,298.8200000762939,-166.2683978746445,-1.2785036865234374,-0.2537853759765625,9.964667309570311,0.01265696748473771,0.0083935680313868,0.0069280247618810405,12.404580116271973
164041,103265.00244140625,298.8200000762939,-166.18330780730616,-1.3742717529296875,-0.3447650390625,10.036493359375,0.01532159227311919,-0.012923430275665048,-0.03970290903479488,12.404580116271973
164099,103264.00146484375,298.8200000762939,-166.09821707208513,-1.3024457031249999,-0.33039982910156246,10.012551342773437,0.020917305681106793,-0.021716693013591505,-0.053825419268889695,12.450018882751465
164156,103266.00341796875,298.8200000762939,-166.2683978746445,-1.3742717529296875,-0.33039982910156246,9.955090502929687,-0.0005329249641781544,-0.002931087319234494,-0.005995406033932657,12.450018882751465
164213,103261.99951171875,298.8200000762939,-165.92803359797466,-1.4173673828125,-0.373495458984375,10.036493359375,-0.04276722957001332,0.020117918348622078,-0.03730474911793533,12.450018882751465
164270,103261.99951171875,298.8200000762939,-165.92803359797466,-1.24498486328125,-0.22026655273437498,10.060435375976562,0.04156814545039434,-0.0015987749250437537,-0.03050995367092336,12.450018882751465
164327,103263.00048828125,298.8200000762939,-166.01312566898144,-1.3168109130859373,-0.2825157958984375,10.007762939453125,-0.04116845490504389,0.009725880945726191,0.007860642969680774,12.404580116271973
164384,103265.00244140625,298.83000030517576,-166.1888692527047,-1.35990654296875,-0.26815058593749996,9.969455712890625,0.020251149223937098,0.005462480972226631,0.0342404285827169,12.404580116271973
164442,103259.99755859375,298.8200000762939,-165.7578474522008,-1.47482822265625,-0.3112462158203125,9.988609326171874,-0.004929555910520605,0.038503829076365105,-0.038237367325735065,12.404580116271973
164499,103261.99951171875,298.83000030517576,-165.93358650043592,-1.3551181396484375,-0.2920926025390625,10.01733974609375,-0.007727412094365755,0.004796324515056936,-0.03344104125023218,12.450018882751465
164556,103265.00244140625,298.83000030517576,-166.1888692527047,-1.3646949462890625,-0.39264907226562495,9.993397729492187,0.04116845490504389,-0.017586523395258315,-0.007993874365144442,12.359142303466797
164613,103259.99755859375,298.83000030517576,-165.76339465925878,-1.2880804931640624,-0.32561142578124996,9.950302099609374,-0.03650535970485602,0.01532159227311919,-0.046764164151842286,12.450018882751465
164670,103264.00146484375,298.83000030517576,-166.10377566986025,-1.3263877197265623,-0.3495534423828125,10.031704956054687,-0.030776417502148,0.0003996937312609384,-0.015588055064046528,12.450018882751465
164727,103261.99951171875,298.83000030517576,-165.93358650043592,-1.388636962890625,-0.37828386230468747,10.036493359375,-0.005995406033932657,-0.009192955363871514,-0.02504747321884538,12.450018882751465
164784,103263.00048828125,298.83000030517576,-166.0186814191108,-1.2928688964843749,-0.13407529296874998,10.0748005859375,0.019318528935542763,-0.05409188518070893,-0.03996937078542492,12.450018882751465
164841,103263.00048828125,298.83000030517576,-166.0186814191108,-1.4173673828125,-0.316034619140625,10.117896215820313,-0.024381316761675684,0.01811944897711299,-0.04210107311284362,12.404580116271973
164899,103263.00048828125,298.83000030517576,-166.0186814191108,-1.3838485595703125,-0.2346317626953125,10.01733974609375,0.014522204940634477,0.019052067184912723,-0.00706125563719606,12.450018882751465
164956,103260.99853515625,298.8400005340576,-165.85404096858596,-1.4604630126953124,-0.181959326171875,9.969455712890625,0.01532159227311919,0.004130168578035891,-0.03943644728416484,12.404580116271973
165013,103265.00244140625,298.83000030517576,-166.1888692527047,-1.3646949462890625,-0.2154781494140625,9.801861596679688,-0.028911179005953934,0.07354364291097211,0.013989280399077101,12.404580116271973
165070,103265.00244140625,298.83000030517576,-166.1888692527047,-1.3311761230468748,-0.19632453613281248,10.026916552734374,0.009459418154798853,0.05169372110266019,0.0027978559237708247,12.404580116271973
165127,103260.99853515625,298.83000030517576,-165.84849091381517,-1.4700398193359374,-0.2537853759765625,9.969455712890625,0.027179173465669487,0.020917305681106793,-0.0510275646454905,12.450018882751465
165184,103265.00244140625,298.83000030517576,-166.1888692527047,-1.3742717529296875,-0.2442085693359375,9.916783276367187,-0.009592649030113871,0.031575804834632716,-0.02651301700849979,12.404580116271973
165241,103263.00048828125,298.83000030517576,-166.0186814191108,-1.37906015625,-0.316034619140625,9.97903251953125,0.03570597445296591,0.005329249576762962,0.04090198899322465,12.404580116271973
165299,103264.00146484375,298.83000030517576,-166.10377566986025,-1.3311761230468748,-0.258573779296875,9.950302099609374,0.014921898606876833,-0.00852679942685047,0.016520674312143564,12.450018882751465
165356,103260.99853515625,298.83000030517576,-165.84849091381517,-1.35990654296875,-0.296881005859375,9.945513696289062,0.002664624788381481,0.009459418154798853,-0.07154517353946303,12.404580116271973
165413,103266.00341796875,298.8400005340576,-166.2795264606437,-1.3120225097656248,-0.22505495605468748,10.079588989257813,-0.01572128593936155,-0.005062787305984274,-0.03477335416457157,12.404580116271973
165470,103268.994140625,298.8400005340576,-166.53377201610488,-1.3646949462890625,-0.2825157958984375,10.0748005859375,0.0006661561970953703,0.010258805487283567,-0.040235836697244155,12.404580116271973
165527,103263.00048828125,298.8400005340576,-166.02423716924017,-1.4173673828125,-0.2920926025390625,9.883264453125,-0.011724349276937976,0.016520674312143564,-0.004796324515056936,12.450018882751465
165584,103264.00146484375,298.83000030517576,-166.10377566986025,-1.4173673828125,-0.32082302246093747,10.05564697265625,0.002264931122139124,0.00706125563719606,0.022649311221391237,12.450018882751465
165641,103259.99755859375,298.83000030517576,-165.76339465925878,-1.3311761230468748,-0.2537853759765625,9.97903251953125,0.013456354817222424,-0.007727412094365755,-0.010658499153525925,12.404580116271973
165698,103263.00048828125,298.8400005340576,-166.02423716924017,-1.4413093994140624,-0.2442085693359375,10.041281762695311,-0.03264165391774747,-0.018652374558967667,0.007727412094365755,12.450018882751465
165755,103261.99951171875,298.8400005340576,-165.93913940289715,-1.3838485595703125,-0.38307226562499996,10.1131078125,0.007594180698902086,0.0009326186629298021,-0.028511486380008878,12.450018882751465
165813,103264.00146484375,298.8400005340576,-166.1093342676354,-1.350329736328125,-0.33518823242187495,9.897629663085937,0.019052067184912723,0.023315467678560933,-0.0314425718787231,12.359142303466797
165870,103261.99951171875,298.8400005340576,-165.93913940289715,-1.4987702392578124,-0.2825157958984375,9.969455712890625,-0.04783001531555164,0.024248085886360668,0.007594180698902086,12.404580116271973
165927,103261.99951171875,298.8400005340576,-165.93913940289715,-1.3742717529296875,-0.27293898925781246,10.01733974609375,0.04836293881681172,0.002264931122139124,-0.03397396683208686,12.450018882751465
165984,103264.00146484375,298.8400005340576,-166.1093342676354,-1.3263877197265623,-0.22505495605468748,9.969455712890625,0.03290811566837751,0.03597243620359594,-0.028644717255323898,12.404580116271973
166041,103264.00146484375,298.8400005340576,-166.1093342676354,-1.37906015625,-0.21068974609375,9.935936889648437,-0.03237519216711743,0.039836141990704496,0.04982848468706073,12.450018882751465
166098,103261.99951171875,298.8400005340576,-165.93913940289715,-1.4221557861328125,-0.316034619140625,10.046070166015625,-0.036905054411395674,0.009592649030113871,-0.00852679942685047,12.450018882751465
166155,103261.99951171875,298.85000076293943,-165.9446923053584,-1.4221557861328125,-0.33518823242187495,9.964667309570311,-0.027445635216299523,-0.011324655610695619,0.038903523782904764,12.404580116271973
166213,103263.00048828125,298.8400005340576,-166.02423716924017,-1.3407529296874998,-0.24899697265624998,10.084377392578125,0.0038637060471828776,0.004263399713425235,0.04623124065058221,12.450018882751465
166270,103263.00048828125,298.8400005340576,-166.02423716924017,-1.4030021728515625,-0.181959326171875,9.931148486328125,0.007727412094365755,0.0083935680313868,0.023581929429190972,12.450018882751465
166327,103261.99951171875,298.8400005340576,-165.93913940289715,-1.37906015625,-0.1867477294921875,9.830592016601562,0.006395099700175015,0.03130934100340808,0.007993874365144442,12.359142303466797
166384,103266.00341796875,298.8400005340576,-166.2795264606437,-1.3359645263671873,-0.22505495605468748,10.012551342773437,-0.013456354817222424,0.017186829729015956,-0.05742266330536821,12.359142303466797
166441,103266.00341796875,298.85000076293943,-166.2850907536433,-1.2689268798828124,-0.258573779296875,10.146626635742187,-0.03970290903479488,0.021716693013591505,-0.024381316761675684,12.404580116271973
166498,103264.00146484375,298.85000076293943,-166.1148928654105,-1.3407529296874998,-0.32082302246093747,10.065223779296874,-0.021450229182366866,-0.010791730028840943,0.03384073595677184,12.450018882751465
166555,103266.00341796875,298.85000076293943,-166.2850907536433,-1.3072341064453123,-0.3112462158203125,10.079588989257813,-0.011191423695083299,0.004663093639741917,0.10432006457430931,12.404580116271973
166612,103263.00048828125,298.8400005340576,-166.02423716924017,-1.2401964599609374,-0.3591302490234375,10.098742602539062,-0.029310873712493593,0.04623124065058221,0.010392036362598585,12.450018882751465
166670,103264.00146484375,298.85000076293943,-166.1148928654105,-1.37906015625,-0.22026655273437498,9.931148486328125,-0.03250842304243245,0.0017320061904702601,0.055157732183229086,12.404580116271973
166727,103260.99853515625,298.85000076293943,-165.8595910233567,-1.3263877197265623,-0.22026655273437498,10.026916552734374,0.005862174638468988,-0.018785605434282687,-0.048229710022091296,12.404580116271973
166784,103261.99951171875,298.85000076293943,-165.9446923053584,-1.3646949462890625,-0.27293898925781246,9.974244116210937,0.016520674312143564,0.005329249576762962,-0.004263399713425235,12.404580116271973
166841,103265.00244140625,298.85000076293943,-166.19999214350176,-1.4508862060546874,-0.3591302490234375,9.9981861328125,-0.04609800769467259,-0.040235836697244155,0.07420979936814182,12.404580116271973
166898,103263.00048828125,298.85000076293943,-166.02979291936953,-1.3311761230468748,-0.22026655273437498,9.988609326171874,-0.028511486380008878,-0.005728943243005319,-0.07074579244876211,12.450018882751465
166955,103264.00146484375,298.85000076293943,-166.1148928654105,-1.3934253662109375,-0.16280571289062498,10.007762939453125,-0.006261868304711345,0.004929555910520605,-0.019185298060227743,12.404580116271973
167012,103266.00341796875,298.85000076293943,-166.2850907536433,-1.35990654296875,-0.277727392578125,10.117896215820313,-0.0335742721255472,-0.029310873712493593,0.01265696748473771,12.404580116271973
167069,103261.99951171875,298.85000076293943,-165.9446923053584,-1.388636962890625,-0.2346317626953125,9.993397729492187,-0.03477335416457157,-0.04250076781938328,0.055690659845678364,12.404580116271973
167127,103264.00146484375,298.85000076293943,-166.1148928654105,-1.4173673828125,-0.26815058593749996,9.94072529296875,0.03663859266076564,-0.017186829729015956,-0.014655436856246797,12.404580116271973
167184,103265.00244140625,298.85000076293943,-166.19999214350176,-1.4317325927734375,-0.1867477294921875,10.060435375976562,-0.016120979605603904,0.011324655610695619,0.023448698553875953,12.450018882751465
167241,103268.00537109375,298.85000076293943,-166.45528597013842,-1.350329736328125,-0.21068974609375,9.916783276367187,0.004529862244278248,-0.03304134862428713,0.038237367325735065,12.404580116271973
167298,103259.99755859375,298.85000076293943,-165.77448907337467,-1.3407529296874998,-0.27293898925781246,9.97903251953125,-0.01705359885370094,0.009459418154798853,0.0167871360627736,12.49545669555664
167355,103260.99853515625,298.85000076293943,-165.8595910233567,-1.39821376953125,-0.26815058593749996,10.108319409179687,-0.03344104125023218,0.02957733546312363,-0.13749463783212765,12.404580116271973
167412,103266.00341796875,298.85000076293943,-166.2850907536433,-1.3742717529296875,-0.3495534423828125,10.002974536132811,-0.04449923302970316,-0.010392036362598585,0.002264931122139124,12.404580116271973
167469,103261.99951171875,298.85000076293943,-165.9446923053584,-1.37906015625,-0.17238251953125,10.046070166015625,0.023581929429190972,0.0003996937312609384,-0.015854517854973868,12.450018882751465
167526,103260.99853515625,298.85000076293943,-165.8595910233567,-1.4030021728515625,-0.2442085693359375,10.026916552734374,0.027712099047524162,-0.009725880945726191,0.017719754270573332,12.450018882751465
167584,103263.00048828125,298.85000076293943,-166.02979291936953,-1.2737152832031249,-0.277727392578125,10.041281762695311,0.0035972435163298642,-0.01692036797838592,-0.015188361397804172,12.450018882751465
167641,103259.99755859375,298.85000076293943,-165.77448907337467,-1.3742717529296875,-0.22026655273437498,9.9981861328125,-0.009326187279483833,0.03410719770740188,-0.01532159227311919,12.404580116271973
167698,103261.99951171875,298.85000076293943,-165.9446923053584,-1.388636962890625,-0.3064578125,9.849745629882811,-0.04902909527398141,0.006261868304711345,-0.03730474911793533,12.359142303466797
167755,103263.00048828125,298.85000076293943,-166.02979291936953,-1.37906015625,-0.22026655273437498,9.911994873046874,-0.0055957118475416495,0.018785605434282687,0.03783767261919541,12.450018882751465
167812,103261.99951171875,298.85000076293943,-165.9446923053584,-1.3742717529296875,-0.2154781494140625,9.878476049804688,-0.00852679942685047,-0.017586523395258315,0.01412251127439212,12.404580116271973
167869,103264.00146484375,298.85000076293943,-166.1148928654105,-1.4317325927734375,-0.1388636962890625,9.945513696289062,0.0055957118475416495,0.02224961651485158,-0.010125574611968549,12.450018882751465
167926,103259.99755859375,298.85000076293943,-165.77448907337467,-1.2976572998046874,-0.33039982910156246,9.955090502929687,0.013323123941907405,-0.016520674312143564,0.011724349276937976,12.404580116271973
167984,103261.99951171875,298.8400005340576,-165.93913940289715,-1.3551181396484375,-0.2920926025390625,9.926360083007811,0.00852679942685047,-0.0010658499283563087,0.002531393652992137,12.404580116271973
168041,103259.99755859375,298.85000076293943,-165.77448907337467,-1.3120225097656248,-0.22026655273437498,10.09395419921875,0.03290811566837751,0.022382847390166598,0.06475038433423486,12.450018882751465
168098,103259.99755859375,298.85000076293943,-165.77448907337467,-1.3455413330078123,-0.296881005859375,9.935936889648437,-0.004929555910520605,0.03370750300086222,-0.009192955363871514,12.404580116271973
168155,103264.00146484375,298.85000076293943,-166.1148928654105,-1.426944189453125,-0.38786066894531246,9.9215716796875,0.017186829729015956,0.016520674312143564,-0.024248085886360668,12.404580116271973
168212,103261.99951171875,298.85000076293943,-165.9446923053584,-1.5562310791015623,-0.22505495605468748,9.974244116210937,-0.062352220256186114,0.022915772972021277,0.00852679942685047,12.404580116271973
168269,103261.99951171875,298.85000076293943,-165.9446923053584,-1.3838485595703125,-0.2154781494140625,10.041281762695311,-0.03264165391774747,-0.019318528935542763,0.027978560798154202,12.404580116271973
168326,103266.00341796875,298.85000076293943,-166.2850907536433,-1.2785036865234374,-0.258573779296875,9.916783276367187,0.030110261044978305,0.01545482418873151,-0.05715620155473817,12.450018882751465
168383,103259.99755859375,298.85000076293943,-165.77448907337467,-1.407790576171875,-0.296881005859375,9.90241806640625,-0.04156814545039434,-0.020384380099252114,0.004263399713425235,12.404580116271973
168440,103261.99951171875,298.85000076293943,-165.9446923053584,-1.4125789794921875,-0.28730419921875,9.935936889648437,-0.03623889795422598,0.0055957118475416495,0.13802756133338773,12.450018882751465
168497,103264.00146484375,298.85000076293943,-166.1148928654105,-1.350329736328125,-0.3495534423828125,10.160991845703125,0.03277488479306249,0.05888820917561722,0.01798621810179797,12.404580116271973
168555,103258.99658203125,298.85000076293943,-165.68938645538165,-1.3311761230468748,-0.2825157958984375,10.084377392578125,0.004663093639741917,0.007860642969680774,-0.007327718428123398,12.450018882751465
168612,103261.99951171875,298.85000076293943,-165.9446923053584,-1.3838485595703125,-0.4261678955078125,9.988609326171874,-0.07913936048014891,0.00985911182104121,0.04369984777781305,12.404580116271973
168669,103264.00146484375,298.85000076293943,-166.1148928654105,-1.2785036865234374,-0.3112462158203125,10.098742602539062,-0.13469678736991766,0.009725880945726191,0.1510842245649624,12.404580116271973
168726,103261.99951171875,298.85000076293943,-165.9446923053584,-1.3359645263671873,-0.39743747558593745,10.060435375976562,0.0009326186629298021,0.036372126748946396,-0.045431851237502895,12.404580116271973
168783,103259.99755859375,298.85000076293943,-165.77448907337467,-1.4173673828125,-0.2920926025390625,10.098742602539062,0.02504747321884538,-0.006528330575490033,0.03130934100340808,12.450018882751465
168840,103260.99853515625,298.85000076293943,-165.8595910233567,-1.3311761230468748,-0.26815058593749996,10.065223779296874,0.03064318454623838,0.004929555910520605,-0.11324655610695619,12.450018882751465
168897,103263.00048828125,298.85000076293943,-166.02979291936953,-1.4221557861328125,-0.181959326171875,9.945513696289062,0.03250842304243245,0.020384380099252114,-0.17773048285175022,12.404580116271973
168954,103260.99853515625,298.85000076293943,-165.8595910233567,-1.4173673828125,-0.316034619140625,9.969455712890625,0.014655436856246797,-0.013722817608149761,-0.02211638563953656,12.404580116271973
169012,103265.00244140625,298.85000076293943,-166.19999214350176,-1.4700398193359374,-0.26336218261718747,9.983820922851562,0.024248085886360668,0.04170137840630396,-0.07927258511368013,12.404580116271973
169069,103259.99755859375,298.85000076293943,-165.77448907337467,-1.3934253662109375,-0.26336218261718747,10.079588989257813,-0.0019984685912861106,0.0019984685912861106,-0.021716693013591505,12.404580116271973
169126,103265.00244140625,298.85000076293943,-166.19999214350176,-1.4125789794921875,-0.258573779296875,9.983820922851562,-0.020650841849882154,0.03597243620359594,-0.014522204940634477,12.404580116271973
169183,103260.99853515625,298.85000076293943,-165.8595910233567,-1.235408056640625,-0.33518823242187495,10.103531005859374,0.009725880945726191,0.0083935680313868,-0.007860642969680774,12.450018882751465
169240,103260.99853515625,298.85000076293943,-165.8595910233567,-1.4891934326171874,-0.2442085693359375,9.969455712890625,0.0001332312410445386,0.010525268278210905,-0.024248085886360668,12.404580116271973
169297,103260.99853515625,298.85000076293943,-165.8595910233567,-1.3455413330078123,-0.1867477294921875,10.041281762695311,0.0923292483452548,0.024914242343530364,-0.19864778229107322,12.404580116271973
169355,103261.99951171875,298.8400005340576,-165.93913940289715,-1.254561669921875,-0.26336218261718747,9.97903251953125,0.02131699830705185,0.008660030822314138,0.010525268278210905,12.404580116271973
169412,103260.99853515625,298.85000076293943,-165.8595910233567,-1.4939818359375,-0.32082302246093747,9.969455712890625,-0.00852679942685047,-0.005862174638468988,-0.03570597445296591,12.450018882751465
169469,103260.99853515625,298.85000076293943,-165.8595910233567,-1.2832920898437499,-0.2825157958984375,9.950302099609374,-0.02997703016966329,0.0021316998567126174,0.08833230960223663,12.450018882751465
169526,103261.99951171875,298.85000076293943,-165.9446923053584,-1.3311761230468748,-0.21068974609375,10.09395419921875,-0.031176110128093057,0.027312404340984506,0.12417151701111215,12.450018882751465
169583,103261.99951171875,298.85000076293943,-165.9446923053584,-1.3838485595703125,-0.32082302246093747,9.9981861328125,0.027712099047524162,-0.002531393652992137,-0.00985911182104121,12.404580116271973
169640,103258.99658203125,298.85000076293943,-165.68938645538165,-1.3742717529296875,-0.2920926025390625,9.950302099609374,0.017453292519943295,0.025980091426645115,0.0035972435163298642,12.450018882751465
169697,103260.99853515625,298.85000076293943,-165.8595910233567,-1.4221557861328125,-0.26815058593749996,9.964667309570311,-0.05795559096781749,-0.010258805487283567,0.15294946930294026,12.404580116271973
169754,103261.99951171875,298.85000076293943,-165.9446923053584,-1.4891934326171874,-0.1771709228515625,9.911994873046874,0.03370750300086222,0.009725880945726191,0.01265696748473771,12.404580116271973
169811,103261.99951171875,298.85000076293943,-165.9446923053584,-1.4413093994140624,-0.3112462158203125,10.012551342773437,0.008260337156071782,0.001199081128764234,-0.02078407272519717,12.404580116271973
169869,103259.99755859375,298.85000076293943,-165.77448907337467,-1.4317325927734375,-0.277727392578125,9.94072529296875,-0.004796324515056936,0.040502298447874195,0.03330781037491716,12.450018882751465
169926,103265.00244140625,298.85000076293943,-166.19999214350176,-1.3455413330078123,-0.26336218261718747,9.974244116210937,-0.016254211521216224,0.030243491920293325,0.04156814545039434,12.450018882751465
169983,103264.00146484375,298.85000076293943,-166.1148928654105,-1.3407529296874998,-0.38307226562499996,10.070012182617187,-0.001465543659617247,0.03090964837746302,-0.05782235801190787,12.404580116271973
170040,103263.00048828125,298.85000076293943,-166.02979291936953,-1.3359645263671873,-0.277727392578125,10.05564697265625,0.003064318454623838,-0.010125574611968549,-0.02971056633843865,12.404580116271973
170097,103264.00146484375,298.85999908447263,-166.1204504029915,-1.3742717529296875,-0.2442085693359375,10.026916552734374,-0.024647778512305724,0.020517610974567134,-0.04396630952844308,12.359142303466797
170154,103260.99853515625,298.85999908447263,-165.8651400195628,-1.216254443359375,-0.3399766357421875,10.036493359375,0.006128636909247676,0.011457886486010638,-0.010658499153525925,12.359142303466797
170211,103259.99755859375,298.85000076293943,-165.77448907337467,-1.3407529296874998,-0.239420166015625,10.002974536132811,-0.02957733546312363,-0.0251807040941604,-0.037171516162025714,12.404580116271973
170269,103259.99755859375,298.85999908447263,-165.78003522241107,-1.3455413330078123,-0.3064578125,9.983820922851562,-0.006661561970953703,-0.028644717255323898,-0.029843797213753666,12.359142303466797
170326,103260.99853515625,298.85999908447263,-165.8651400195628,-1.35990654296875,-0.2059013427734375,9.969455712890625,0.004263399713425235,0.0031975498500875074,0.0013323123941907406,12.49545669555664
170383,103260.99853515625,298.85999908447263,-165.8651400195628,-1.3742717529296875,-0.181959326171875,9.97903251953125,0.005329249576762962,0.0034640123809405203,-0.026912709634444847,12.404580116271973
170440,103264.00146484375,298.85999908447263,-166.1204504029915,-1.465251416015625,-0.2154781494140625,10.007762939453125,-0.01798621810179797,-0.00852679942685047,-0.0007993874625218768,12.450018882751465
170497,103259.99755859375,298.85999908447263,-165.78003522241107,-1.4939818359375,-0.2346317626953125,10.002974536132811,-0.031842266585262756,-0.01692036797838592,0.02917764075658397,12.404580116271973
170554,103258.99658203125,298.85999908447263,-165.69492975722605,-1.3311761230468748,-0.2920926025390625,9.955090502929687,-0.023315467678560933,0.010658499153525925,-0.025846860551330095,12.450018882751465
170611,103263.00048828125,298.85999908447263,-166.0353476098479,-1.3263877197265623,-0.3016694091796875,10.050858569335936,-0.03090964837746302,0.015055130522489153,-0.056623278053478096,12.450018882751465
170668,103266.00341796875,298.85999908447263,-166.29065398536252,-1.3646949462890625,-0.26815058593749996,10.060435375976562,0.011724349276937976,0.01665390518745858,-0.03757121086856537,12.450018882751465
170726,103261.99951171875,298.85999908447263,-165.9502441487118,-1.2785036865234374,-0.3591302490234375,10.022128149414062,-0.025980091426645115,0.018785605434282687,-0.026113322301960132,12.404580116271973
170783,103265.00244140625,298.85999908447263,-166.20555252816305,-1.2928688964843749,-0.277727392578125,9.95987890625,-0.0021316998567126174,0.008260337156071782,0.03757121086856537,12.404580116271973
170840,103261.99951171875,298.85999908447263,-165.9502441487118,-1.2737152832031249,-0.2825157958984375,9.931148486328125,-0.014388974065319457,0.03996937078542492,-0.004796324515056936,12.404580116271973
170897,103260.99853515625,298.85999908447263,-165.8651400195628,-1.4030021728515625,-0.316034619140625,9.911994873046874,-0.06115314029775634,0.05768912921718745,0.02997703016966329,12.404580116271973
170954,103260.99853515625,298.85999908447263,-165.8651400195628,-1.3838485595703125,-0.33039982910156246,9.950302099609374,-0.03290811566837751,0.023049003847336293,0.0979249659144316,12.450018882751465
171011,103258.99658203125,298.86999931335447,-165.70047411654883,-1.426944189453125,-0.26336218261718747,9.907206469726562,-0.0069280247618810405,0.00985911182104121,-0.022382847390166598,12.404580116271973
171069,103259.99755859375,298.85999908447263,-165.78003522241107,-1.4221557861328125,-0.32561142578124996,10.007762939453125,-0.013189893066592386,-0.030110261044978305,-0.0027978559237708247,12.359142303466797
171126,103261.99951171875,298.85999908447263,-165.9502441487118,-1.3215993164062498,-0.22505495605468748,9.993397729492187,-0.015987748730288884,-0.025846860551330095,-0.03317457949960215,12.404580116271973
171183,103261.99951171875,298.86999931335447,-165.95579705117302,-1.2593500732421874,-0.229843359375,9.988609326171874,-0.005728943243005319,-0.004796324515056936,0.024781011468215344,12.404580116271973
171240,103261.99951171875,298.85999908447263,-165.9502441487118,-1.2832920898437499,-0.3064578125,10.022128149414062,0.0017320061904702601,0.002398162257528468,0.05209341580919985,12.404580116271973
171297,103258.99658203125,298.85999908447263,-165.69492975722605,-1.35990654296875,-0.24899697265624998,9.964667309570311,-0.05902143797033764,0.03477335416457157,0.011591118401622958,12.404580116271973
171354,103263.00048828125,298.86999931335447,-166.04090335997725,-1.39821376953125,-0.22505495605468748,9.9981861328125,-0.023448698553875953,-0.03237519216711743,-0.011457886486010638,12.359142303466797
171411,103261.99951171875,298.85999908447263,-165.9502441487118,-1.426944189453125,-0.258573779296875,10.089165795898436,0.0021316998567126174,0.0027978559237708247,-0.00985911182104121,12.450018882751465
171469,103259.99755859375,298.85999908447263,-165.78003522241107,-1.3742717529296875,-0.26336218261718747,9.926360083007811,-0.03477335416457157,0.009192955363871514,0.015588055064046528,12.404580116271973
171526,103258.99658203125,298.86999931335447,-165.70047411654883,-1.4508862060546874,-0.316034619140625,10.046070166015625,-0.011324655610695619,-0.035439508541146664,0.016254211521216224,12.404580116271973
171583,103263.00048828125,298.86999931335447,-166.04090335997725,-1.407790576171875,-0.3495534423828125,9.964667309570311,-0.01545482418873151,-0.0034640123809405203,-0.04942878998052107,12.404580116271973
171640,103258.99658203125,298.86999931335447,-165.70047411654883,-1.39821376953125,-0.33039982910156246,9.9215716796875,0.012923430275665048,0.0001332312410445386,0.008127105760608112,12.404580116271973
171697,103264.00146484375,298.86999931335447,-166.1260090007666,-1.37906015625,-0.16280571289062498,9.95987890625,-0.017852987226482955,0.015188361397804172,-0.02824502254878424,12.404580116271973
171754,103261.99951171875,298.86999931335447,-165.95579705117302,-1.4604630126953124,-0.21068974609375,9.883264453125,-0.01412251127439212,0.04343338602718301,-0.02971056633843865,12.49545669555664
171811,103261.99951171875,298.86999931335447,-165.95579705117302,-1.2785036865234374,-0.28730419921875,10.026916552734374,-0.07607503578374128,0.008260337156071782,0.055290965139138705,12.450018882751465
171868,103260.99853515625,298.86999931335447,-165.87069007433357,-1.3934253662109375,-0.27293898925781246,10.05564697265625,-0.03797090557510503,-0.008793261697629158,0.06967993712386356,12.404580116271973
171926,103261.99951171875,298.86999931335447,-165.95579705117302,-1.2880804931640624,-0.277727392578125,10.117896215820313,0.018519141603058047,0.03597243620359594,-0.02131699830705185,12.404580116271973
171983,103263.00048828125,298.86999931335447,-166.04090335997725,-1.3934253662109375,-0.21068974609375,10.046070166015625,0.05795559096781749,0.011191423695083299,0.0009326186629298021,12.404580116271973
172040,103261.99951171875,298.86999931335447,-165.95579705117302,-1.369483349609375,-0.3016694091796875,10.026916552734374,-0.0069280247618810405,-0.028644717255323898,0.005196018181299293,12.404580116271973
172097,103259.99755859375,298.86999931335447,-165.78558242946903,-1.3407529296874998,-0.258573779296875,10.089165795898436,0.005462480972226631,-0.0035972435163298642,-0.02811179167346922,12.450018882751465
172154,103261.99951171875,298.86999931335447,-165.95579705117302,-1.446097802734375,-0.239420166015625,10.022128149414062,0.01798621810179797,-0.0002664624820890772,-0.028911179005953934,12.450018882751465
172211,103263.00048828125,298.86999931335447,-166.04090335997725,-1.3742717529296875,-0.4261678955078125,9.9981861328125,-0.004263399713425235,0.04276722957001332,0.06115314029775634,12.450018882751465
172268,103265.00244140625,298.86999931335447,-166.21111397356157,-1.4173673828125,-0.258573779296875,10.002974536132811,0.025846860551330095,0.005329249576762962,0.05475804163787863,12.404580116271973
172325,103256.99462890625,298.86999931335447,-165.53025548653116,-1.2689268798828124,-0.38786066894531246,10.022128149414062,0.011191423695083299,0.001199081128764234,0.036372126748946396,12.404580116271973
172382,103263.00048828125,298.86999931335447,-166.04090335997725,-1.3934253662109375,-0.26336218261718747,9.95987890625,-0.013056661150980066,0.019052067184912723,0.0069280247618810405,12.404580116271973
172439,103261.99951171875,298.86999931335447,-165.95579705117302,-1.3838485595703125,-0.40222587890625,10.031704956054687,0.01532159227311919,0.015588055064046528,-0.04809647706618168,12.450018882751465
172497,103261.99951171875,298.86999931335447,-165.95579705117302,-1.2114660400390624,-0.277727392578125,9.974244116210937,0.007727412094365755,-0.038770290826995145,0.02971056633843865,12.450018882751465
172554,103258.99658203125,298.86999931335447,-165.70047411654883,-1.3838485595703125,-0.24899697265624998,10.103531005859374,-0.01998468539271246,0.0013323123941907406,-0.03064318454623838,12.450018882751465
172611,103258.99658203125,298.86999931335447,-165.70047411654883,-1.4508862060546874,-0.2537853759765625,9.859322436523437,0.018385910727743027,0.01105819281976828,-0.03237519216711743,12.450018882751465
172668,103261.99951171875,298.86999931335447,-165.95579705117302,-1.35990654296875,-0.32082302246093747,9.945513696289062,-0.01105819281976828,0.03623889795422598,0.008793261697629158,12.450018882751465
172725,103260.99853515625,298.86999931335447,-165.87069007433357,-1.3215993164062498,-0.33039982910156246,9.983820922851562,-0.03663859266076564,-0.0034640123809405203,-0.04143491665567393,12.359142303466797
172782,103260.99853515625,298.86999931335447,-165.87069007433357,-1.4030021728515625,-0.1771709228515625,9.9981861328125,0.02824502254878424,0.0069280247618810405,0.037171516162025714,12.404580116271973
172839,103258.99658203125,298.86999931335447,-165.70047411654883,-1.426944189453125,-0.277727392578125,10.050858569335936,0.0018652373258596041,0.0010658499283563087,-0.0167871360627736,12.450018882751465
172897,103260.99853515625,298.86999931335447,-165.87069007433357,-1.4125789794921875,-0.2825157958984375,10.146626635742187,-0.047563553564921604,0.06022052208995661,-0.052226644603920264,12.404580116271973
172954,103265.00244140625,298.86999931335447,-166.21111397356157,-1.2689268798828124,-0.296881005859375,10.065223779296874,-0.026779478759129827,-0.0021316998567126174,0.03130934100340808,12.404580116271973
173011,103260.99853515625,298.86999931335447,-165.87069007433357,-1.2593500732421874,-0.2920926025390625,10.046070166015625,-0.018519141603058047,0.00985911182104121,-0.015987748730288884,12.404580116271973
173068,103260.99853515625,298.86999931335447,-165.87069007433357,-1.35990654296875,-0.19632453613281248,10.007762939453125,-0.023182236803245916,0.02504747321884538,0.01825267985242801,12.404580116271973
173125,103263.00048828125,298.86999931335447,-166.04090335997725,-1.3407529296874998,-0.277727392578125,10.213664282226562,-0.04409954248435271,0.016120979605603904,0.015854517854973868,12.359142303466797
173182,103264.00146484375,298.86999931335447,-166.1260090007666,-1.3120225097656248,-0.39743747558593745,10.141838232421874,-0.040235836697244155,-0.016387442396531244,0.0587549762197076,12.450018882751465
173239,103260.99853515625,298.86999931335447,-165.87069007433357,-1.426944189453125,-0.2537853759765625,10.084377392578125,-0.024914242343530364,0.013456354817222424,-0.02944410458780861,12.450018882751465
173296,103260.99853515625,298.86999931335447,-165.87069007433357,-1.43652099609375,-0.28730419921875,10.002974536132811,-0.01971822364208242,-0.0074609493034384165,0.024381316761675684,12.404580116271973
173353,103260.99853515625,298.86999931335447,-165.87069007433357,-1.4125789794921875,-0.1771709228515625,10.022128149414062,-0.0001332312410445386,0.019185298060227743,-0.017852987226482955,12.404580116271973
173411,103257.99560546875,298.8799995422363,-165.6209066471382,-1.4125789794921875,-0.229843359375,9.907206469726562,0.0055957118475416495,-0.02544716792538504,0.0734104099550625,12.404580116271973
173468,103258.99658203125,298.86999931335447,-165.70047411654883,-1.3359645263671873,-0.4213794921875,10.01733974609375,-0.008127105760608112,0.002664624788381481,0.001465543659617247,12.450018882751465
173525,103263.00048828125,298.86999931335447,-166.04090335997725,-1.254561669921875,-0.258573779296875,10.089165795898436,0.035439508541146664,-0.013856049523762081,-0.04210107311284362,12.404580116271973
173582,103258.99658203125,298.8799995422363,-165.70601847587162,-1.465251416015625,-0.24899697265624998,9.955090502929687,-0.013989280399077101,0.004529862244278248,-0.06888055187197345,12.404580116271973
173639,103263.00048828125,298.86999931335447,-166.04090335997725,-1.3215993164062498,-0.229843359375,9.964667309570311,-0.01545482418873151,0.002664624788381481,0.08007197452675945,12.404580116271973
173696,103260.99853515625,298.8799995422363,-165.87624012910433,-1.2976572998046874,-0.354341845703125,9.983820922851562,0.013856049523762081,-0.027978560798154202,-0.013989280399077101,12.359142303466797
173753,103259.99755859375,298.86999931335447,-165.78558242946903,-1.3407529296874998,-0.39264907226562495,10.022128149414062,0.006261868304711345,-0.04330015307127339,-0.013722817608149761,12.450018882751465
173810,103263.00048828125,298.86999931335447,-166.04090335997725,-1.2928688964843749,-0.3399766357421875,9.935936889648437,-0.016254211521216224,0.026779478759129827,-0.023448698553875953,12.450018882751465
173868,103258.99658203125,298.86999931335447,-165.70047411654883,-1.3168109130859373,-0.3064578125,9.988609326171874,-0.010392036362598585,0.02558039880070006,-0.0001332312410445386,12.404580116271973
173925,103259.99755859375,298.8799995422363,-165.791129636527,-1.4221557861328125,-0.3591302490234375,9.926360083007811,-0.04809647706618168,0.020517610974567134,-0.05275957226636954,12.404580116271973
173982,103257.99560546875,298.8799995422363,-165.6209066471382,-1.3215993164062498,-0.17238251953125,9.878476049804688,-0.030110261044978305,-0.004130168578035891,-0.009592649030113871,12.450018882751465
174039,103258.99658203125,298.8799995422363,-165.70601847587162,-1.47482822265625,-0.26815058593749996,9.931148486328125,-0.01105819281976828,-0.006528330575490033,0.013456354817222424,12.359142303466797
174096,103261.99951171875,298.86999931335447,-165.95579705117302,-1.2880804931640624,-0.3112462158203125,10.046070166015625,0.015055130522489153,-0.0055957118475416495,0.03610566499831636,12.404580116271973
174153,103261.99951171875,298.8799995422363,-165.96134995363428,-1.47482822265625,-0.3495534423828125,10.079588989257813,-0.02198315476422154,0.038637057871085526,0.03050995367092336,12.450018882751465
174211,103257.99560546875,298.8799995422363,-165.6209066471382,-1.3455413330078123,-0.229843359375,10.046070166015625,-0.04996171348178114,-0.0018652373258596041,0.017186829729015956,12.404580116271973
174268,103263.00048828125,298.8799995422363,-166.0464591101066,-1.2976572998046874,-0.258573779296875,10.060435375976562,-0.0003996937312609384,0.024647778512305724,-0.01412251127439212,12.450018882751465
174325,103264.00146484375,298.8799995422363,-166.13156759854175,-1.3838485595703125,-0.13407529296874998,9.935936889648437,0.0007993874625218768,0.0019984685912861106,-0.044765694780333196,12.359142303466797
174382,103260.99853515625,298.86999931335447,-165.87069007433357,-1.4508862060546874,-0.26336218261718747,10.002974536132811,-0.005062787305984274,0.0531592669729092,-0.0033307809854768514,12.450018882751465
174439,103260.99853515625,298.8799995422363,-165.87624012910433,-1.3215993164062498,-0.2154781494140625,10.065223779296874,0.024647778512305724,-0.009326187279483833,0.007327718428123398,12.450018882751465
174496,103263.00048828125,298.8799995422363,-166.0464591101066,-1.2737152832031249,-0.22505495605468748,10.012551342773437,-0.0010658499283563087,0.011324655610695619,-0.02837825342409926,12.404580116271973
174554,103261.99951171875,298.8799995422363,-165.96134995363428,-1.407790576171875,-0.316034619140625,9.969455712890625,-0.007860642969680774,-0.009725880945726191,-0.010392036362598585,12.450018882751465
174611,103260.99853515625,298.86999931335447,-165.87069007433357,-1.3646949462890625,-0.258573779296875,10.046070166015625,-0.020251149223937098,0.05915467092624726,0.05475804163787863,12.404580116271973
174668,103259.99755859375,298.8799995422363,-165.791129636527,-1.4604630126953124,-0.33039982910156246,9.945513696289062,-0.026246555257869755,0.03583920324768632,0.037171516162025714,12.450018882751465
174725,103258.99658203125,298.8799995422363,-165.70601847587162,-1.3311761230468748,-0.36391865234375,9.888052856445311,0.013323123941907405,0.031042879252778037,-0.0006661561970953703,12.450018882751465
174782,103259.99755859375,298.8799995422363,-165.791129636527,-1.407790576171875,-0.32561142578124996,10.012551342773437,0.03370750300086222,-0.006128636909247676,-0.04236753486347366,12.404580116271973
174839,103263.00048828125,298.8799995422363,-166.0464591101066,-1.3359645263671873,-0.373495458984375,10.036493359375,-0.006261868304711345,0.021450229182366866,0.02637978613318477,12.404580116271973
174897,103260.99853515625,298.8799995422363,-165.87624012910433,-1.3742717529296875,-0.2825157958984375,10.084377392578125,0.0010658499283563087,0.005728943243005319,-0.02651301700849979,12.450018882751465
174954,103257.99560546875,298.86999931335447,-165.61536513557294,-1.4508862060546874,-0.411802685546875,9.950302099609374,-0.008660030822314138,0.014522204940634477,-0.05675650684819852,12.404580116271973
175011,103265.00244140625,298.8799995422363,-166.2166754189601,-1.3120225097656248,-0.2442085693359375,10.060435375976562,-0.038104134369825446,-0.004263399713425235,0.020917305681106793,12.404580116271973
175068,103256.99462890625,298.8799995422363,-165.53579415031655,-1.4030021728515625,-0.17238251953125,9.95987890625,-0.030776417502148,0.06408422787706516,0.005329249576762962,12.404580116271973
175125,103258.99658203125,298.86999931335447,-165.70047411654883,-1.3263877197265623,-0.1388636962890625,10.026916552734374,0.0027978559237708247,0.014522204940634477,0.004396630848814579,12.450018882751465
175182,103263.00048828125,298.8799995422363,-166.0464591101066,-1.4221557861328125,-0.258573779296875,9.911994873046874,-0.045565084193412514,-0.025980091426645115,-0.014788667731561815,12.404580116271973
175239,103261.99951171875,298.8799995422363,-165.96134995363428,-1.4604630126953124,-0.38786066894531246,10.036493359375,0.021583460057681886,0.03623889795422598,-0.006528330575490033,12.450018882751465
175297,103256.99462890625,298.8799995422363,-165.53579415031655,-1.47482822265625,-0.22026655273437498,9.95987890625,-0.039569680240074456,-0.005062787305984274,-0.008793261697629158,12.404580116271973
175354,103263.00048828125,298.8799995422363,-166.0464591101066,-1.3407529296874998,-0.2825157958984375,10.036493359375,-0.005462480972226631,-0.018652374558967667,-0.031176110128093057,12.404580116271973
175411,103260.99853515625,298.8799995422363,-165.87624012910433,-1.3551181396484375,-0.33518823242187495,9.897629663085937,0.040102603741334536,-0.009459418154798853,-0.0017320061904702601,12.450018882751465
175468,103259.99755859375,298.8799995422363,-165.791129636527,-1.484405029296875,-0.2154781494140625,9.892841259765625,0.009725880945726191,0.05142725935203015,-0.0017320061904702601,12.359142303466797
175525,103263.00048828125,298.8799995422363,-166.0464591101066,-1.4173673828125,-0.27293898925781246,9.935936889648437,-0.01705359885370094,0.013856049523762081,-0.036771821455486055,12.404580116271973
175582,103258.99658203125,298.8799995422363,-165.70601847587162,-1.3359645263671873,-0.2442085693359375,9.983820922851562,-0.054225113975429354,-0.019584992766767402,0.1461546634529553,12.404580116271973
175639,103260.99853515625,298.8799995422363,-165.87624012910433,-1.4030021728515625,-0.3495534423828125,9.94072529296875,-0.022915772972021277,0.04316692011536377,-0.029843797213753666,12.450018882751465
175696,103264.00146484375,298.8799995422363,-166.13156759854175,-1.4030021728515625,-0.201112939453125,10.022128149414062,0.040502298447874195,-0.03464012328925655,0.030776417502148,12.450018882751465
175754,103259.99755859375,298.8799995422363,-165.791129636527,-1.446097802734375,-0.3687070556640625,9.950302099609374,-0.024781011468215344,0.0037304746517192082,0.02371516030450599,12.404580116271973
175811,103258.99658203125,298.8799995422363,-165.70601847587162,-1.4125789794921875,-0.239420166015625,9.94072529296875,-0.02558039880070006,-0.006395099700175015,0.024114855011045648,12.404580116271973
175868,103259.99755859375,298.8799995422363,-165.791129636527,-1.3551181396484375,-0.22026655273437498,9.907206469726562,0.046764164151842286,0.006128636909247676,-0.11511179252255566,12.404580116271973
175925,103260.99853515625,298.8799995422363,-165.87624012910433,-1.2880804931640624,-0.201112939453125,10.098742602539062,0.0003996937312609384,0.045565084193412514,-0.08273660035543823,12.404580116271973
175982,103259.99755859375,298.8799995422363,-165.791129636527,-1.3742717529296875,-0.2920926025390625,10.01733974609375,-0.0037304746517192082,0.031575804834632716,-0.001199081128764234,12.404580116271973
176039,103265.00244140625,298.8799995422363,-166.2166754189601,-1.350329736328125,-0.229843359375,9.969455712890625,0.0009326186629298021,-0.020384380099252114,-0.07514242173713075,12.404580116271973
176096,103260.99853515625,298.8799995422363,-165.87624012910433,-1.2497732666015624,-0.2059013427734375,10.05564697265625,-0.005728943243005319,0.009725880945726191,0.04449923302970316,12.404580116271973
176153,103260.99853515625,298.8799995422363,-165.87624012910433,-1.3359645263671873,-0.38786066894531246,10.012551342773437,0.0074609493034384165,-0.004529862244278248,0.053558957518259655,12.404580116271973
176211,103257.99560546875,298.8799995422363,-165.6209066471382,-1.4221557861328125,-0.3591302490234375,9.9981861328125,-0.0006661561970953703,-0.007860642969680774,0.031176110128093057,12.450018882751465
176268,103259.99755859375,298.8799995422363,-165.791129636527,-1.4030021728515625,-0.33039982910156246,9.974244116210937,-0.024647778512305724,-0.018918836309597706,-0.038104134369825446,12.404580116271973
176325,103260.99853515625,298.8799995422363,-165.87624012910433,-1.407790576171875,-0.3591302490234375,10.070012182617187,0.03597243620359594,0.0034640123809405203,0.0027978559237708247,12.450018882751465
176382,103261.99951171875,298.8799995422363,-165.96134995363428,-1.3742717529296875,-0.229843359375,9.945513696289062,-0.027712099047524162,0.005728943243005319,0.027179173465669487,12.404580116271973
176439,103259.99755859375,298.8799995422363,-165.791129636527,-1.4030021728515625,-0.3112462158203125,9.926360083007811,0.022915772972021277,-0.02944410458780861,-0.038237367325735065,12.404580116271973
176496,103261.99951171875,298.8799995422363,-165.96134995363428,-1.3742717529296875,-0.201112939453125,10.031704956054687,-0.05062786993895084,-0.023448698553875953,0.011857580152252994,12.450018882751465
176553,103264.00146484375,298.8799995422363,-166.13156759854175,-1.369483349609375,-0.3591302490234375,9.97903251953125,0.004796324515056936,0.03663859266076564,0.04876263352335137,12.450018882751465
176611,103263.00048828125,298.8799995422363,-166.0464591101066,-1.3120225097656248,-0.38786066894531246,10.041281762695311,-0.054891270432599046,0.013989280399077101,0.036905054411395674,12.450018882751465
176668,103264.00146484375,298.8799995422363,-166.13156759854175,-1.4173673828125,-0.296881005859375,9.974244116210937,0.014388974065319457,0.026246555257869755,-0.01985145451739744,12.450018882751465
176725,103258.99658203125,298.8799995422363,-165.70601847587162,-1.4508862060546874,-0.3112462158203125,10.002974536132811,-0.02131699830705185,0.013189893066592386,0.062352220256186114,12.404580116271973
176782,103261.99951171875,298.86999931335447,-165.95579705117302,-1.3359645263671873,-0.2346317626953125,10.036493359375,-0.013189893066592386,0.005995406033932657,-0.0643506896276952,12.450018882751465
176839,103259.99755859375,298.8799995422363,-165.791129636527,-1.446097802734375,-0.2346317626953125,10.084377392578125,-0.0002664624820890772,-0.053825419268889695,0.03290811566837751,12.404580116271973
176896,103263.00048828125,298.8799995422363,-166.0464591101066,-1.35990654296875,-0.22026655273437498,9.9981861328125,-0.013323123941907405,0.015987748730288884,-0.014655436856246797,12.404580116271973
176953,103261.99951171875,298.8799995422363,-165.96134995363428,-1.3215993164062498,-0.39743747558593745,10.036493359375,0.026246555257869755,-0.004663093639741917,-0.08953138956066639,12.450018882751465
177011,103263.00048828125,298.8799995422363,-166.0464591101066,-1.3455413330078123,-0.36391865234375,9.94072529296875,0.015854517854973868,0.025846860551330095,0.03783767261919541,12.450018882751465
177068,103260.99853515625,298.8799995422363,-165.87624012910433,-1.2832920898437499,-0.2154781494140625,10.079588989257813,0.025713629676015076,0.0426339966141037,0.006395099700175015,12.450018882751465
177125,103264.00146484375,298.8799995422363,-166.13156759854175,-1.369483349609375,-0.3591302490234375,10.031704956054687,0.014255743190004439,0.03996937078542492,0.0083935680313868,12.404580116271973
177182,103257.99560546875,298.8799995422363,-165.6209066471382,-1.3551181396484375,-0.3591302490234375,10.079588989257813,0.011857580152252994,-0.01412251127439212,0.08233690981008777,12.450018882751465
177239,103257.99560546875,298.8799995422363,-165.6209066471382,-1.3455413330078123,-0.2537853759765625,10.041281762695311,0.04436600423498274,-0.038370596120455486,-0.04409954248435271,12.404580116271973
177296,103261.99951171875,298.8799995422363,-165.96134995363428,-1.2785036865234374,-0.22026655273437498,9.974244116210937,0.0069280247618810405,-0.01798621810179797,-0.023581929429190972,12.404580116271973
177354,103259.99755859375,298.8799995422363,-165.791129636527,-1.3934253662109375,-0.2442085693359375,10.031704956054687,-0.006395099700175015,-0.011324655610695619,0.01572128593936155,12.404580116271973
177411,103260.99853515625,298.8799995422363,-165.87624012910433,-1.2641384765625,-0.143652099609375,10.007762939453125,0.004929555910520605,-0.0071944870326597285,-0.04130168369976431,12.404580116271973
177468,103264.00146484375,298.8799995422363,-166.13156759854175,-1.5035586425781249,-0.2442085693359375,10.002974536132811,-0.006261868304711345,-0.019584992766767402,-0.01692036797838592,12.404580116271973
177525,103259.99755859375,298.8799995422363,-165.791129636527,-1.2737152832031249,-0.16280571289062498,9.993397729492187,-0.01532159227311919,0.02544716792538504,0.04769678235964202,12.450018882751465
177582,103260.99853515625,298.8799995422363,-165.87624012910433,-1.4700398193359374,-0.258573779296875,9.907206469726562,-0.03304134862428713,0.007727412094365755,-0.06341807141989547,12.404580116271973
177639,103258.99658203125,298.8799995422363,-165.70601847587162,-1.4796166259765624,-0.277727392578125,10.127473022460936,0.05795559096781749,0.011191423695083299,-0.040102603741334536,12.404580116271973
177696,103265.00244140625,298.8799995422363,-166.2166754189601,-1.350329736328125,-0.316034619140625,10.0748005859375,-0.01545482418873151,0.02837825342409926,-0.023581929429190972,12.49545669555664
177753,103261.99951171875,298.8799995422363,-165.96134995363428,-1.4796166259765624,-0.3687070556640625,9.950302099609374,-0.021716693013591505,0.015854517854973868,0.04982848468706073,12.404580116271973
177810,103259.99755859375,298.8799995422363,-165.791129636527,-1.3072341064453123,-0.27293898925781246,10.137049829101562,0.0013323123941907406,0.05768912921718745,0.007860642969680774,12.404580116271973
177868,103264.00146484375,298.8799995422363,-166.13156759854175,-1.43652099609375,-0.1771709228515625,9.95987890625,0.030376722795608345,0.008260337156071782,-0.024381316761675684,12.404580116271973
177925,103264.00146484375,298.8799995422363,-166.13156759854175,-1.37906015625,-0.3064578125,9.907206469726562,-0.06448391842241562,0.021583460057681886,-0.09632618708827297,12.404580116271973
177982,103263.00048828125,298.8799995422363,-166.0464591101066,-1.3838485595703125,-0.26336218261718747,9.945513696289062,-0.011457886486010638,-0.03570597445296591,0.03730474911793533,12.450018882751465
178039,103260.99853515625,298.8799995422363,-165.87624012910433,-1.4987702392578124,-0.3112462158203125,10.01733974609375,0.04076876019850423,-0.029044409881268954,-0.013589586732834743,12.404580116271973
178098,103263.00048828125,298.8799995422363,-166.0464591101066,-1.4508862060546874,-0.16280571289062498,9.983820922851562,0.01998468539271246,0.022649311221391237,-0.006128636909247676,12.404580116271973
178155,103261.99951171875,298.8799995422363,-165.96134995363428,-1.3120225097656248,-0.26815058593749996,9.935936889648437,0.005462480972226631,0.02558039880070006,0.021450229182366866,12.404580116271973
178212,103261.99951171875,298.8799995422363,-165.96134995363428,-1.5179238525390624,-0.26815058593749996,10.002974536132811,-0.015854517854973868,-0.029310873712493593,-0.029044409881268954,12.359142303466797
178269,103266.00341796875,298.8799995422363,-166.30178257136168,-1.37906015625,-0.239420166015625,9.926360083007811,0.06754823895763405,-0.010392036362598585,-0.04316692011536377,12.404580116271973
178326,103263.00048828125,298.8799995422363,-166.0464591101066,-1.3455413330078123,-0.24899697265624998,9.935936889648437,-0.015055130522489153,0.010924961944453263,-0.0037304746517192082,12.450018882751465
178384,103265.00244140625,298.8799995422363,-166.2166754189601,-1.3551181396484375,-0.3064578125,10.05564697265625,0.015588055064046528,0.05076110289486046,0.005862174638468988,12.450018882751465
178441,103261.99951171875,298.88999977111814,-165.96690285609552,-1.3838485595703125,-0.316034619140625,10.127473022460936,-0.038104134369825446,0.016120979605603904,-0.0035972435163298642,12.450018882751465
178498,103264.00146484375,298.8799995422363,-166.13156759854175,-1.2785036865234374,-0.2920926025390625,10.070012182617187,-0.007993874365144442,-0.009592649030113871,-0.016254211521216224,12.450018882751465
178555,103265.00244140625,298.88999977111814,-166.22223686435862,-1.3838485595703125,-0.2825157958984375,9.888052856445311,-0.048895866479260995,0.037171516162025714,0.024914242343530364,12.450018882751465
178612,103266.00341796875,298.88999977111814,-166.30734686436128,-1.2880804931640624,-0.2154781494140625,9.907206469726562,0.021716693013591505,0.002398162257528468,0.014921898606876833,12.450018882751465
178669,103266.00341796875,298.88999977111814,-166.30734686436128,-1.350329736328125,-0.3399766357421875,9.974244116210937,-0.0013323123941907406,0.03450689033334693,-0.04236753486347366,12.450018882751465
178726,103263.00048828125,298.88999977111814,-166.05201486023594,-1.350329736328125,-0.258573779296875,10.0748005859375,0.005728943243005319,-0.023049003847336293,0.0037304746517192082,12.404580116271973
178784,103264.00146484375,298.88999977111814,-166.13712619631684,-1.3742717529296875,-0.239420166015625,10.002974536132811,0.008260337156071782,0.021849923888906525,-0.06408422787706516,12.404580116271973
178841,103263.00048828125,298.88999977111814,-166.05201486023594,-1.2785036865234374,-0.354341845703125,10.065223779296874,-0.014255743190004439,0.046630935357121865,0.006395099700175015,12.450018882751465
178898,103265.00244140625,298.88999977111814,-166.22223686435862,-1.426944189453125,-0.201112939453125,10.002974536132811,0.0006661561970953703,-0.01532159227311919,-0.03437365945803191,12.404580116271973
178955,103265.00244140625,298.88999977111814,-166.22223686435862,-1.3407529296874998,-0.296881005859375,9.892841259765625,-0.024248085886360668,0.023981624135730628,0.05062786993895084,12.404580116271973
179012,103263.00048828125,298.88999977111814,-166.05201486023594,-1.3742717529296875,-0.32082302246093747,9.955090502929687,0.03770443966328579,-0.0034640123809405203,-0.006395099700175015,12.450018882751465
179069,103265.00244140625,298.88999977111814,-166.22223686435862,-1.3215993164062498,-0.316034619140625,10.022128149414062,0.0038637060471828776,-0.04409954248435271,0.030110261044978305,12.404580116271973
179126,103264.00146484375,298.88999977111814,-166.13712619631684,-1.2018892333984375,-0.22026655273437498,10.084377392578125,0.017719754270573332,-0.0007993874625218768,-0.029310873712493593,12.404580116271973
179184,103266.00341796875,298.88999977111814,-166.30734686436128,-1.3455413330078123,-0.26336218261718747,10.002974536132811,-0.017586523395258315,0.011324655610695619,-0.017719754270573332,12.404580116271973
179241,103261.99951171875,298.88999977111814,-165.96690285609552,-1.4030021728515625,-0.2920926025390625,10.050858569335936,0.024647778512305724,-0.024647778512305724,-0.019584992766767402,12.450018882751465
179298,103265.00244140625,298.88999977111814,-166.22223686435862,-1.3455413330078123,-0.3399766357421875,9.988609326171874,0.002664624788381481,0.038770290826995145,0.019584992766767402,12.404580116271973
179355,103265.00244140625,298.88999977111814,-166.22223686435862,-1.599326708984375,-0.201112939453125,9.911994873046874,-0.025846860551330095,0.03264165391774747,0.04356661482190343,12.450018882751465
179412,103261.99951171875,298.88999977111814,-165.96690285609552,-1.4413093994140624,-0.2920926025390625,9.931148486328125,0.013856049523762081,0.02504747321884538,-0.006661561970953703,12.404580116271973
179469,103263.00048828125,298.8799995422363,-166.0464591101066,-1.4317325927734375,-0.3687070556640625,9.969455712890625,0.005462480972226631,0.03250842304243245,-0.07287748645380242,12.404580116271973
179526,103264.00146484375,298.88999977111814,-166.13712619631684,-1.3646949462890625,-0.277727392578125,9.950302099609374,-0.005062787305984274,0.02944410458780861,-0.038637057871085526,12.450018882751465
179583,103264.00146484375,298.88999977111814,-166.13712619631684,-1.37906015625,-0.2537853759765625,10.046070166015625,-0.03410719770740188,-0.07434303232405143,-0.013589586732834743,12.404580116271973
179641,103263.00048828125,298.8799995422363,-166.0464591101066,-1.4987702392578124,-0.3016694091796875,10.041281762695311,0.02917764075658397,0.010525268278210905,-0.0002664624820890772,12.404580116271973
179698,103261.99951171875,298.8799995422363,-165.96134995363428,-1.426944189453125,-0.33039982910156246,10.103531005859374,-0.025713629676015076,-0.010658499153525925,-0.0706125594928525,12.450018882751465
179755,103260.99853515625,298.8799995422363,-165.87624012910433,-1.3311761230468748,-0.296881005859375,9.974244116210937,0.0038637060471828776,-0.0019984685912861106,0.016120979605603904,12.404580116271973
179812,103266.00341796875,298.8799995422363,-166.30178257136168,-1.2785036865234374,-0.1867477294921875,9.955090502929687,-0.009725880945726191,-0.013456354817222424,0.03783767261919541,12.404580116271973
179869,103264.00146484375,298.8799995422363,-166.13156759854175,-1.3646949462890625,-0.33518823242187495,9.94072529296875,-0.023182236803245916,0.045298622442782474,0.13562940141652818,12.450018882751465
179926,103259.99755859375,298.8799995422363,-165.791129636527,-1.3263877197265623,-0.239420166015625,9.854534033203125,-0.03290811566837751,-0.03370750300086222,0.010924961944453263,12.404580116271973
179983,103263.00048828125,298.8799995422363,-166.0464591101066,-1.3742717529296875,-0.2154781494140625,10.031704956054687,-0.0083935680313868,0.018652374558967667,0.017852987226482955,12.450018882751465
180041,103266.00341796875,298.8799995422363,-166.30178257136168,-1.388636962890625,-0.32082302246093747,9.931148486328125,-0.001465543659617247,-0.00852679942685047,0.002398162257528468,12.450018882751465
180098,103264.00146484375,298.8799995422363,-166.13156759854175,-1.4413093994140624,-0.38786066894531246,9.974244116210937,0.004130168578035891,0.02131699830705185,-0.03930321432825522,12.404580116271973
180155,103266.00341796875,298.8799995422363,-166.30178257136168,-1.2689268798828124,-0.316034619140625,10.036493359375,-0.04423277127907312,-0.01572128593936155,0.018519141603058047,12.404580116271973
180212,103260.99853515625,298.8799995422363,-165.87624012910433,-1.3551181396484375,-0.26336218261718747,10.046070166015625,-0.0013323123941907406,-0.008260337156071782,-0.0009326186629298021,12.404580116271973
180269,103261.99951171875,298.8799995422363,-165.96134995363428,-1.3934253662109375,-0.26815058593749996,9.9981861328125,0.024781011468215344,0.0019984685912861106,-0.009192955363871514,12.404580116271973
180326,103263.00048828125,298.8799995422363,-166.0464591101066,-1.3455413330078123,-0.32082302246093747,10.01733974609375,0.008260337156071782,0.01572128593936155,0.017852987226482955,12.404580116271973
180383,103265.00244140625,298.86999931335447,-166.21111397356157,-1.407790576171875,-0.277727392578125,9.993397729492187,-0.020251149223937098,-0.03490658503988659,-0.06648238779392471,12.450018882751465
180440,103263.00048828125,298.86999931335447,-166.04090335997725,-1.3455413330078123,-0.33518823242187495,10.156203442382813,0.01532159227311919,0.0015987749250437537,-0.024514547636990704,12.404580116271973
180498,103267.00439453125,298.8799995422363,-166.38688905576691,-1.446097802734375,-0.2920926025390625,9.988609326171874,-0.021849923888906525,0.024914242343530364,0.024514547636990704,12.404580116271973
180555,103264.00146484375,298.8799995422363,-166.13156759854175,-1.3263877197265623,-0.26336218261718747,9.911994873046874,0.011724349276937976,-0.037171516162025714,-0.1341638555462792,12.404580116271973
180612,103266.00341796875,298.8799995422363,-166.30178257136168,-1.4891934326171874,-0.33518823242187495,10.0748005859375,0.014788667731561815,0.001199081128764234,0.006128636909247676,12.404580116271973
180669,103265.00244140625,298.8799995422363,-166.2166754189601,-1.37906015625,-0.26815058593749996,9.945513696289062,-0.0531592669729092,-0.005462480972226631,-0.017852987226482955,12.450018882751465
180726,103260.99853515625,298.8799995422363,-165.87624012910433,-1.2785036865234374,-0.13407529296874998,10.041281762695311,-0.013323123941907405,0.0027978559237708247,-0.06248545321209573,12.450018882751465
180783,103264.00146484375,298.86999931335447,-166.1260090007666,-1.3120225097656248,-0.28730419921875,10.05564697265625,-0.02957733546312363,0.026246555257869755,-0.03450689033334693,12.450018882751465
180841,103260.99853515625,298.8799995422363,-165.87624012910433,-1.3742717529296875,-0.258573779296875,10.022128149414062,0.008260337156071782,-0.0251807040941604,-0.036771821455486055,12.404580116271973
180898,103259.99755859375,298.86999931335447,-165.78558242946903,-1.3263877197265623,-0.3495534423828125,10.060435375976562,0.0001332312410445386,0.0005329249641781544,-0.011324655610695619,12.404580116271973
180955,103260.99853515625,298.86999931335447,-165.87069007433357,-1.35990654296875,-0.19632453613281248,9.90241806640625,-0.0017320061904702601,0.024248085886360668,-0.024514547636990704,12.450018882751465
181012,103266.00341796875,298.8799995422363,-166.30178257136168,-1.426944189453125,-0.2154781494140625,10.026916552734374,0.039569680240074456,0.043833076572533464,-0.0035972435163298642,12.404580116271973
181069,103265.00244140625,298.8799995422363,-166.2166754189601,-1.4796166259765624,-0.26815058593749996,10.041281762695311,-0.04130168369976431,0.011857580152252994,0.014255743190004439,12.404580116271973
181126,103263.00048828125,298.8799995422363,-166.0464591101066,-1.2832920898437499,-0.1867477294921875,10.01733974609375,0.012390505734107672,0.012390505734107672,0.062218987300276495,12.450018882751465
181184,103261.99951171875,298.86999931335447,-165.95579705117302,-1.39821376953125,-0.296881005859375,10.05564697265625,-0.06581623133675502,-0.06181929675492604,0.0002664624820890772,12.450018882751465
181241,103260.99853515625,298.8799995422363,-165.87624012910433,-1.2832920898437499,-0.21068974609375,9.94072529296875,0.002664624788381481,-0.013189893066592386,-0.044765694780333196,12.404580116271973
181298,103261.99951171875,298.86999931335447,-165.95579705117302,-1.3263877197265623,-0.181959326171875,9.950302099609374,-0.030110261044978305,-0.01532159227311919,-0.05835528151316794,12.450018882751465
181355,103261.99951171875,298.8799995422363,-165.96134995363428,-1.3263877197265623,-0.32082302246093747,10.036493359375,-0.010658499153525925,-0.027445635216299523,0.021716693013591505,12.450018882751465
181412,103265.00244140625,298.86999931335447,-166.21111397356157,-1.5322890624999999,-0.33518823242187495,9.90241806640625,-0.006661561970953703,0.007594180698902086,0.03996937078542492,12.404580116271973
181469,103265.00244140625,298.8799995422363,-166.2166754189601,-1.3311761230468748,-0.24899697265624998,9.969455712890625,-0.00985911182104121,0.02824502254878424,-0.03050995367092336,12.404580116271973
181527,103260.99853515625,298.8799995422363,-165.87624012910433,-1.350329736328125,-0.3399766357421875,10.1131078125,0.010791730028840943,0.015055130522489153,0.011324655610695619,12.404580116271973
181584,103264.00146484375,298.8799995422363,-166.13156759854175,-1.388636962890625,-0.296881005859375,10.098742602539062,0.005196018181299293,-0.01705359885370094,-0.005196018181299293,12.404580116271973
181641,103261.99951171875,298.8799995422363,-165.96134995363428,-1.446097802734375,-0.2825157958984375,9.969455712890625,0.007860642969680774,0.013989280399077101,-0.009059724488556496,12.404580116271973
181698,103259.99755859375,298.86999931335447,-165.78558242946903,-1.4317325927734375,-0.40222587890625,9.916783276367187,-0.0009326186629298021,0.07567534523839083,-0.024781011468215344,12.450018882751465
181755,103263.00048828125,298.86999931335447,-166.04090335997725,-1.3407529296874998,-0.2442085693359375,10.01733974609375,-0.002531393652992137,-0.0031975498500875074,-0.01692036797838592,12.450018882751465
181812,103264.00146484375,298.8799995422363,-166.13156759854175,-1.4317325927734375,-0.2059013427734375,9.931148486328125,0.004796324515056936,-0.014522204940634477,0.01532159227311919,12.404580116271973
181869,103264.00146484375,298.86999931335447,-166.1260090007666,-1.455674609375,-0.26336218261718747,9.983820922851562,-0.006261868304711345,-0.020117918348622078,-0.05409188518070893,12.450018882751465
181927,103266.00341796875,298.8799995422363,-166.30178257136168,-1.3311761230468748,-0.277727392578125,9.988609326171874,-0.001465543659617247,-0.020917305681106793,-0.01705359885370094,12.404580116271973
181984,103265.00244140625,298.8799995422363,-166.2166754189601,-1.2976572998046874,-0.2825157958984375,10.09395419921875,-0.0031975498500875074,-0.05475804163787863,0.04436600423498274,12.404580116271973
182041,103266.00341796875,298.8799995422363,-166.30178257136168,-1.3934253662109375,-0.26336218261718747,9.931148486328125,-0.0015987749250437537,0.030776417502148,0.00999234269635623,12.450018882751465
182098,103264.00146484375,298.8799995422363,-166.13156759854175,-1.47482822265625,-0.229843359375,9.983820922851562,0.013323123941907405,-0.005462480972226631,0.03290811566837751,12.450018882751465
182155,103263.00048828125,298.86999931335447,-166.04090335997725,-1.3838485595703125,-0.19632453613281248,10.050858569335936,-0.005462480972226631,-0.011857580152252994,0.022649311221391237,12.450018882751465
182212,103266.00341796875,298.8799995422363,-166.30178257136168,-1.4413093994140624,-0.3399766357421875,10.060435375976562,0.02957733546312363,0.002531393652992137,-0.013589586732834743,12.404580116271973
182269,103265.00244140625,298.86999931335447,-166.21111397356157,-1.4125789794921875,-0.38786066894531246,9.983820922851562,0.009725880945726191,0.017719754270573332,-0.04956202293643069,12.450018882751465
182327,103263.00048828125,298.86999931335447,-166.04090335997725,-1.4125789794921875,-0.2442085693359375,9.945513696289062,0.023182236803245916,-0.03090964837746302,0.015854517854973868,12.404580116271973
182384,103265.00244140625,298.86999931335447,-166.21111397356157,-1.5466542724609373,-0.27293898925781246,9.9981861328125,0.0035972435163298642,0.029310873712493593,0.036905054411395674,12.404580116271973
182441,103264.00146484375,298.86999931335447,-166.1260090007666,-1.369483349609375,-0.316034619140625,10.022128149414062,-0.013989280399077101,0.02651301700849979,-0.029843797213753666,12.450018882751465
182498,103266.00341796875,298.8799995422363,-166.30178257136168,-1.3407529296874998,-0.2537853759765625,9.916783276367187,-0.020517610974567134,-0.021716693013591505,-0.002398162257528468,12.450018882751465
182555,103261.99951171875,298.86999931335447,-165.95579705117302,-1.4125789794921875,-0.2825157958984375,9.897629663085937,0.015055130522489153,0.01545482418873151,0.047163858858381945,12.404580116271973
182612,103263.00048828125,298.86999931335447,-166.04090335997725,-1.350329736328125,-0.201112939453125,10.026916552734374,-0.019185298060227743,0.01692036797838592,0.0001332312410445386,12.404580116271973
182669,103263.00048828125,298.86999931335447,-166.04090335997725,-1.2976572998046874,-0.296881005859375,9.90241806640625,-0.006261868304711345,-0.008260337156071782,-0.0503614081883208,12.450018882751465
182727,103264.00146484375,298.8799995422363,-166.13156759854175,-1.3455413330078123,-0.24899697265624998,10.026916552734374,-0.02078407272519717,-0.006794793366417372,0.0010658499283563087,12.404580116271973
182784,103265.00244140625,298.8799995422363,-166.2166754189601,-1.35990654296875,-0.27293898925781246,10.09395419921875,0.004663093639741917,-0.0021316998567126174,-0.06115314029775634,12.450018882751465
182841,103268.00537109375,298.8799995422363,-166.4719948721758,-1.3407529296874998,-0.316034619140625,10.050858569335936,-0.01798621810179797,-0.002664624788381481,-0.018918836309597706,12.450018882751465
182898,103265.00244140625,298.8799995422363,-166.2166754189601,-1.484405029296875,-0.258573779296875,10.007762939453125,0.0037304746517192082,-0.011591118401622958,0.01279019940035003,12.404580116271973
182955,103268.00537109375,298.8799995422363,-166.4719948721758,-1.3072341064453123,-0.3495534423828125,9.969455712890625,0.005862174638468988,-0.017586523395258315,0.03797090557510503,12.450018882751465
183012,103265.00244140625,298.8799995422363,-166.2166754189601,-1.4317325927734375,-0.3447650390625,10.007762939453125,0.011724349276937976,-0.00985911182104121,-0.047297091814291564,12.404580116271973
7803151,102533.99658203125,287.4699996948242,-92.10842647428407,0.38786066894531246,9.715670336914062,0.06703764648437499,-0.03943644728416484,0.005462480972226631,0.0071944870326597285,12.359142303466797
7803208,102536.99951171875,287.5700000762939,-92.33610976541817,0.5315127685546874,9.662997900390625,0.2059013427734375,-0.026246555257869755,-0.03437365945803191,0.004396630848814579,12.359142303466797
7803265,102544.9951171875,287.67000045776365,-92.94231334031127,0.430956298828125,9.710881933593749,0.1292868896484375,-0.01572128593936155,0.012257273818495352,-0.03996937078542492,12.313704490661621
7803322,102543.994140625,287.74000015258787,-92.86642430162735,0.469263525390625,9.686939916992188,0.2059013427734375,-0.035439508541146664,0.0010658499283563087,0.013722817608149761,12.359142303466797
7803379,102548.9990234375,287.79999961853025,-93.24586349681142,0.5315127685546874,9.710881933593749,0.1867477294921875,-0.05928790388215688,0.021450229182366866,-0.1028545187040603,12.313704490661621
7803437,102551.0009765625,287.8499998092651,-93.39763497625502,0.49320554199218747,9.595960253906249,0.181959326171875,0.009592649030113871,-0.050228179393600386,-0.01279019940035003,12.359142303466797
7803494,102552.001953125,287.8799995422363,-93.47351981631255,0.469263525390625,9.639055883789062,0.24899697265624998,-0.004130168578035891,0.05289280106108996,-0.027845329922839182,12.359142303466797
7803551,102554.00390625,287.9100002288818,-93.62528769715338,0.5123591552734374,9.610325463867188,0.1149216796875,-0.04902909527398141,0.03264165391774747,-0.0017320061904702601,12.313704490661621
7803608,102555.0048828125,287.95000019073484,-93.70117073795477,0.507570751953125,9.739612353515625,0.2346317626953125,-0.011191423695083299,0.036771821455486055,-0.036771821455486055,12.359142303466797
7803665,102556.99462890625,287.9699996948242,-93.85200963568772,0.488417138671875,9.595960253906249,0.143652099609375,-0.013989280399077101,0.0013323123941907406,-0.014788667731561815,12.313704490661621
7803722,102557.99560546875,287.99000015258787,-93.92789088464706,0.507570751953125,9.710881933593749,0.27293898925781246,-0.022915772972021277,-0.005462480972226631,0.009326187279483833,12.313704490661621
7803779,102556.005859375,288.0000003814697,-93.77705317903128,0.373495458984375,9.696516723632811,0.1484405029296875,-0.019185298060227743,-0.006128636909247676,0.004263399713425235,12.313704490661621
7803837,102556.99462890625,288.01999988555906,-93.85200963568772,0.4165910888671875,9.658209497070311,0.1580173095703125,-0.0003996937312609384,0.02504747321884538,-0.0314425718787231,12.313704490661621
7803894,102558.99658203125,288.01999988555906,-94.00377153389962,0.49320554199218747,9.658209497070311,0.15322890625,-0.03797090557510503,-0.021450229182366866,-0.010791730028840943,12.359142303466797
7803951,102558.99658203125,288.0300001144409,-94.00377153389962,0.26815058593749996,9.548076220703125,0.105344873046875,-0.022649311221391237,0.041967840156934,-0.008793261697629158,12.359142303466797
7804008,102559.99755859375,288.04000034332273,-94.07965158347255,0.51714755859375,9.624690673828125,0.2154781494140625,-0.03224195921120781,0.004929555910520605,-0.005862174638468988,12.404580116271973
7804065,102556.99462890625,288.04999961853025,-93.85200963568772,0.5315127685546874,9.734823950195311,0.181959326171875,-0.02211638563953656,-0.01265696748473771,-0.0018652373258596041,12.359142303466797
7804123,102559.99755859375,288.04999961853025,-94.07965158347255,0.47884033203125,9.730035546875,0.1388636962890625,-0.018652374558967667,0.017852987226482955,0.03250842304243245,12.313704490661621
7804180,102559.99755859375,288.0599998474121,-94.07965158347255,0.4261678955078125,9.710881933593749,0.16280571289062498,-0.039836141990704496,-0.005995406033932657,-0.05808881976253791,12.359142303466797
7804237,102555.0048828125,288.0599998474121,-93.70117073795477,0.33039982910156246,9.677363110351562,0.0718260498046875,-0.005862174638468988,0.022915772972021277,-0.04956202293643069,12.313704490661621
7804294,102560.99853515625,288.0700000762939,-94.15553103336588,0.584185205078125,9.710881933593749,0.239420166015625,-0.01252373660942269,-0.00706125563719606,0.03290811566837751,12.359142303466797
7804351,102560.99853515625,288.0700000762939,-94.15553103336588,0.37828386230468747,9.543287817382812,0.2442085693359375,0.013856049523762081,-0.027179173465669487,-0.007727412094365755,12.359142303466797
7804408,102557.99560546875,288.08000030517576,-93.92789088464706,0.49799394531249996,9.696516723632811,0.2154781494140625,-0.006794793366417372,0.025980091426645115,-0.031842266585262756,12.359142303466797
7804466,102561.99951171875,288.08000030517576,-94.23140988359768,0.40222587890625,9.701305126953125,0.239420166015625,-0.02651301700849979,0.038770290826995145,-0.031709035709947736,12.313704490661621
7804523,102559.99755859375,288.08000030517576,-94.07965158347255,0.4165910888671875,9.662997900390625,0.22026655273437498,-0.05062786993895084,-0.009725880945726191,-0.028644717255323898,12.359142303466797
7804580,102556.005859375,288.08000030517576,-93.77705317903128,0.5793968017578125,9.6917283203125,0.11013327636718749,-0.03610566499831636,0.0335742721255472,-0.045565084193412514,12.359142303466797
7804637,102560.99853515625,288.0899995803833,-94.15553103336588,0.4213794921875,9.552864624023437,0.13407529296874998,-0.019185298060227743,0.013189893066592386,-0.038637057871085526,12.359142303466797
7804694,102560.99853515625,288.0899995803833,-94.15553103336588,0.4165910888671875,9.629479077148437,0.1292868896484375,-0.011457886486010638,-0.019584992766767402,0.0006661561970953703,12.404580116271973
7804752,102560.99853515625,288.0899995803833,-94.15553103336588,0.47884033203125,9.6917283203125,0.181959326171875,-0.013456354817222424,0.007327718428123398,-0.03970290903479488,12.404580116271973
7804809,102559.99755859375,288.0899995803833,-94.07965158347255,0.316034619140625,9.677363110351562,0.17238251953125,0.020650841849882154,-0.017852987226482955,0.05995406033932658,12.359142303466797
7804866,102563.00048828125,288.0899995803833,-94.30728813416796,0.5123591552734374,9.686939916992188,0.16280571289062498,-0.053692190474169274,0.022649311221391237,-0.03663859266076564,12.359142303466797
7804923,102559.99755859375,288.0999998092651,-94.07965158347255,0.5027823486328125,9.629479077148437,0.2059013427734375,-0.025846860551330095,-0.00985911182104121,-0.01798621810179797,12.313704490661621
7804980,102561.99951171875,288.0999998092651,-94.23140988359768,0.3016694091796875,9.725247143554688,0.201112939453125,-0.011857580152252994,0.01811944897711299,-0.02131699830705185,12.313704490661621
7805037,102559.99755859375,288.0999998092651,-94.07965158347255,0.51714755859375,9.749189160156249,0.08140285644531249,0.008926493613241477,0.01105819281976828,-0.021450229182366866,12.359142303466797
7805095,102559.99755859375,288.0999998092651,-94.07965158347255,0.2825157958984375,9.667786303710937,0.1867477294921875,-0.008127105760608112,0.04929555702461145,0.012923430275665048,12.313704490661621
7805152,102563.00048828125,288.0999998092651,-94.30728813416796,0.507570751953125,9.682151513671874,0.2346317626953125,0.0018652373258596041,-0.020517610974567134,-0.04210107311284362,12.404580116271973
7805209,102565.00244140625,288.11000003814695,-94.45904283638734,0.45489831542968745,9.543287817382812,0.1771709228515625,-0.007860642969680774,0.006528330575490033,-0.019451761891452382,12.359142303466797
7805266,102560.99853515625,288.0999998092651,-94.15553103336588,0.36391865234375,9.643844287109374,0.09576806640624999,-0.04596477889995217,0.0013323123941907406,-0.016120979605603904,12.404580116271973
7805323,102560.99853515625,288.0999998092651,-94.15553103336588,0.40222587890625,9.715670336914062,0.1292868896484375,-0.009326187279483833,-0.0335742721255472,-0.010658499153525925,12.313704490661621
7805380,102561.99951171875,288.11000003814695,-94.23140988359768,0.4740519287109375,9.634267480468749,0.16759411621093748,0.002931087319234494,0.055024503388508665,-0.046630935357121865,12.313704490661621
7805437,102558.99658203125,288.11000003814695,-94.00377153389962,0.4070142822265625,9.624690673828125,0.2442085693359375,-0.06048698384058665,0.03477335416457157,-0.010791730028840943,12.359142303466797
7805495,102561.99951171875,288.11000003814695,-94.23140988359768,0.39264907226562495,9.686939916992188,0.1292868896484375,-0.007727412094365755,0.017320061644628276,-0.047163858858381945,12.359142303466797
7805552,102563.00048828125,288.11000003814695,-94.30728813416796,0.44532150878906246,9.758765966796874,0.1580173095703125,-0.014522204940634477,-0.0021316998567126174,0.0005329249641781544,12.313704490661621
7805609,102560.99853515625,288.11000003814695,-94.15553103336588,0.411802685546875,9.639055883789062,0.19632453613281248,-0.04156814545039434,-0.013189893066592386,-0.04982848468706073,12.313704490661621
7805666,102561.99951171875,288.11000003814695,-94.23140988359768,0.3687070556640625,9.667786303710937,0.22026655273437498,-0.0055957118475416495,-0.023448698553875953,-0.02531393496947542,12.359142303466797
7805723,102558.99658203125,288.11000003814695,-94.00377153389962,0.5123591552734374,9.557653027343749,0.239420166015625,0.0010658499283563087,0.004396630848814579,0.011857580152252994,12.404580116271973
7805780,102559.99755859375,288.11000003814695,-94.07965158347255,0.44053310546874996,9.65342109375,0.1292868896484375,-0.03237519216711743,-0.0013323123941907406,-0.014655436856246797,12.313704490661621
7805838,102557.99560546875,288.11000003814695,-93.92789088464706,0.411802685546875,9.576806640625,0.13407529296874998,-0.020650841849882154,-0.011457886486010638,0.0034640123809405203,12.359142303466797
7805895,102560.99853515625,288.11000003814695,-94.15553103336588,0.4261678955078125,9.682151513671874,0.21068974609375,-0.04116845490504389,-0.02078407272519717,-0.02971056633843865,12.359142303466797
7805952,102559.99755859375,288.1200002670288,-94.07965158347255,0.51714755859375,9.720458740234374,0.15322890625,-0.04489892773624282,-0.014388974065319457,-0.03570597445296591,12.359142303466797
7806009,102556.005859375,288.1200002670288,-93.77705317903128,0.469263525390625,9.758765966796874,0.2059013427734375,-0.02078407272519717,-0.0019984685912861106,-0.020384380099252114,12.313704490661621
7806066,102558.99658203125,288.11000003814695,-94.00377153389962,0.49320554199218747,9.605537060546874,0.062249243164062495,-0.027978560798154202,-0.011990812067865314,0.037038283206116095,12.313704490661621
7806123,102557.99560546875,288.1200002670288,-93.92789088464706,0.37828386230468747,9.658209497070311,0.11013327636718749,-0.0335742721255472,0.027045942590354467,-0.022915772972021277,12.359142303466797
7806181,102558.99658203125,288.1200002670288,-94.00377153389962,0.488417138671875,9.686939916992188,0.1867477294921875,-0.016254211521216224,0.015987748730288884,-0.05622358334693844,12.359142303466797
7806238,102559.99755859375,288.1200002670288,-94.07965158347255,0.40222587890625,9.6151138671875,0.16759411621093748,-0.017852987226482955,0.05169372110266019,0.005196018181299293,12.313704490661621
7806295,102563.00048828125,288.1200002670288,-94.30728813416796,0.44053310546874996,9.672574707031249,0.16759411621093748,-0.010525268278210905,-0.024781011468215344,-0.017320061644628276,12.313704490661621
7806352,102559.99755859375,288.1200002670288,-94.07965158347255,0.5219359619140624,9.706093530273437,0.22505495605468748,-0.019185298060227743,0.0335742721255472,-0.022382847390166598,12.359142303466797
7806409,102560.99853515625,288.1200002670288,-94.15553103336588,0.4261678955078125,9.686939916992188,0.19153613281249998,-0.043833076572533464,0.01105819281976828,-0.023448698553875953,12.359142303466797
7806466,102558.99658203125,288.1200002670288,-94.00377153389962,0.4070142822265625,9.686939916992188,0.16280571289062498,-0.02371516030450599,0.010258805487283567,-0.014655436856246797,12.359142303466797
7806524,102558.99658203125,288.1200002670288,-94.00377153389962,0.469263525390625,9.591171850585937,0.12449848632812499,-0.024647778512305724,0.01825267985242801,-0.03304134862428713,12.313704490661621
7806581,102558.99658203125,288.1200002670288,-94.00377153389962,0.4644751220703125,9.667786303710937,0.2346317626953125,-0.030243491920293325,0.03250842304243245,-0.04316692011536377,12.313704490661621
7806638,102556.99462890625,288.1200002670288,-93.85200963568772,0.49320554199218747,9.739612353515625,0.229843359375,0.0035972435163298642,0.02078407272519717,-0.02384839117982101,12.359142303466797
7806695,102557.99560546875,288.1200002670288,-93.92789088464706,0.5315127685546874,9.696516723632811,0.086191259765625,-0.019318528935542763,0.015188361397804172,-0.04423277127907312,12.359142303466797
7806752,102559.99755859375,288.1200002670288,-94.07965158347255,0.3495534423828125,9.643844287109374,0.16759411621093748,-0.03410719770740188,0.038237367325735065,-0.011857580152252994,12.313704490661621
7806809,102558.99658203125,288.1299995422363,-94.00377153389962,0.507570751953125,9.744400756835937,0.06703764648437499,-0.02531393496947542,-0.03250842304243245,-0.03517304679051663,12.359142303466797
7806866,102556.99462890625,288.1200002670288,-93.85200963568772,0.47884033203125,9.6917283203125,0.2346317626953125,-0.03490658503988659,-0.002264931122139124,-0.01572128593936155,12.359142303466797
7806924,102561.99951171875,288.1299995422363,-94.23140988359768,0.4740519287109375,9.629479077148437,0.08140285644531249,-0.007594180698902086,-0.0009326186629298021,-0.03663859266076564,12.359142303466797
7806981,102559.99755859375,288.1299995422363,-94.07965158347255,0.47884033203125,9.619902270507811,0.24899697265624998,0.002264931122139124,0.0006661561970953703,-0.015854517854973868,12.359142303466797
7807038,102558.99658203125,288.1299995422363,-94.00377153389962,0.32082302246093747,9.600748657226562,0.16280571289062498,-0.004796324515056936,0.017586523395258315,-0.010125574611968549,12.359142303466797
7807095,102563.00048828125,288.1299995422363,-94.30728813416796,0.2825157958984375,9.610325463867188,0.19632453613281248,-0.005329249576762962,-0.024914242343530364,0.02651301700849979,12.313704490661621
7807152,102560.99853515625,288.1299995422363,-94.15553103336588,0.4070142822265625,9.706093530273437,0.105344873046875,-0.004396630848814579,0.005995406033932657,-0.009725880945726191,12.404580116271973
7807209,102558.99658203125,288.1299995422363,-94.00377153389962,0.45010991210937495,9.624690673828125,0.086191259765625,-0.03317457949960215,0.026779478759129827,-0.05835528151316794,12.359142303466797
7807266,102560.99853515625,288.1299995422363,-94.15553103336588,0.39743747558593745,9.734823950195311,0.201112939453125,-0.03583920324768632,0.022915772972021277,0.037437977912655754,12.359142303466797
7807324,102560.99853515625,288.1299995422363,-94.15553103336588,0.4165910888671875,9.667786303710937,0.2154781494140625,-0.023315467678560933,0.029044409881268954,0.0009326186629298021,12.313704490661621
7807381,102558.99658203125,288.1299995422363,-94.00377153389962,0.51714755859375,9.744400756835937,0.22505495605468748,-0.02824502254878424,0.031575804834632716,-0.027179173465669487,12.359142303466797
7807438,102559.99755859375,288.1299995422363,-94.07965158347255,0.4740519287109375,9.662997900390625,0.13407529296874998,0.009459418154798853,-0.030243491920293325,0.01545482418873151,12.359142303466797
7807495,102558.99658203125,288.1299995422363,-94.00377153389962,0.4213794921875,9.658209497070311,0.143652099609375,-0.019584992766767402,-0.027045942590354467,-0.012124042943180334,12.404580116271973
7807552,102556.005859375,288.1299995422363,-93.77705317903128,0.40222587890625,9.624690673828125,0.19632453613281248,-0.04343338602718301,-0.03450689033334693,-0.017586523395258315,12.359142303466797
7807609,102558.99658203125,288.1299995422363,-94.00377153389962,0.4261678955078125,9.643844287109374,0.15322890625,0.017186829729015956,0.048629404728630955,-0.02078407272519717,12.359142303466797
7807667,102559.99755859375,288.1299995422363,-94.07965158347255,0.36391865234375,9.682151513671874,0.16759411621093748,-0.038503829076365105,0.05116079760140012,0.04236753486347366,12.404580116271973
7807724,102556.005859375,288.1299995422363,-93.77705317903128,0.5267243652343749,9.80665,0.1771709228515625,-0.021583460057681886,0.008793261697629158,-0.028511486380008878,12.313704490661621
7807781,102559.99755859375,288.1299995422363,-94.07965158347255,0.37828386230468747,9.696516723632811,0.2346317626953125,-0.017186829729015956,0.03903675257762518,-0.01665390518745858,12.359142303466797
7807838,102558.99658203125,288.1299995422363,-94.00377153389962,0.4165910888671875,9.749189160156249,0.277727392578125,-0.011191423695083299,0.011191423695083299,0.03583920324768632,12.359142303466797
7807895,102560.99853515625,288.1299995422363,-94.15553103336588,0.45489831542968745,9.629479077148437,0.2154781494140625,-0.03224195921120781,-0.03290811566837751,-0.052226644603920264,12.359142303466797
7807952,102559.99755859375,288.1299995422363,-94.07965158347255,0.49320554199218747,9.672574707031249,0.1771709228515625,0.013056661150980066,-0.02504747321884538,-0.03370750300086222,12.359142303466797
7808010,102560.99853515625,288.1299995422363,-94.15553103336588,0.4213794921875,9.758765966796874,0.033518823242187495,-0.023581929429190972,0.018785605434282687,-0.007993874365144442,12.313704490661621
7808067,102557.99560546875,288.13999977111814,-93.92789088464706,0.507570751953125,9.605537060546874,0.1867477294921875,-0.014388974065319457,0.008260337156071782,-0.038903523782904764,12.313704490661621
7808124,102557.99560546875,288.1299995422363,-93.92789088464706,0.430956298828125,9.65342109375,0.12449848632812499,-0.0038637060471828776,0.038637057871085526,0.003996937182572221,12.359142303466797
7808181,102563.00048828125,288.1299995422363,-94.30728813416796,0.45010991210937495,9.6917283203125,0.1388636962890625,-0.02824502254878424,0.011324655610695619,-0.0167871360627736,12.359142303466797
7808238,102560.99853515625,288.1299995422363,-94.15553103336588,0.45968671875,9.624690673828125,0.1388636962890625,-0.024914242343530364,-0.008260337156071782,-0.038903523782904764,12.359142303466797
7808295,102560.99853515625,288.1299995422363,-94.15553103336588,0.40222587890625,9.481038574218749,0.1580173095703125,-0.02917764075658397,-0.008926493613241477,-0.014388974065319457,12.359142303466797
7808352,102563.00048828125,288.13999977111814,-94.30728813416796,0.39264907226562495,9.686939916992188,0.21068974609375,-0.03290811566837751,-0.002931087319234494,-0.03264165391774747,12.359142303466797
7808410,102558.99658203125,288.13999977111814,-94.00377153389962,0.28730419921875,9.677363110351562,0.2154781494140625,-0.005196018181299293,0.024248085886360668,0.010125574611968549,12.359142303466797
7808467,102558.99658203125,288.13999977111814,-94.00377153389962,0.5027823486328125,9.567229833984374,0.13407529296874998,-0.02118376743173683,-0.005196018181299293,0.011857580152252994,12.404580116271973
7808524,102560.99853515625,288.13999977111814,-94.15553103336588,0.5458779785156249,9.739612353515625,0.16759411621093748,-0.04596477889995217,0.022382847390166598,-0.014388974065319457,12.359142303466797
7808581,102558.99658203125,288.13999977111814,-94.00377153389962,0.4070142822265625,9.739612353515625,0.19153613281249998,-0.03197549746057777,0.07594181115021006,-0.07141194890593182,12.359142303466797
7808638,102559.99755859375,288.13999977111814,-94.07965158347255,0.44532150878906246,9.744400756835937,0.181959326171875,-0.02811179167346922,0.014388974065319457,-0.04036906549196457,12.404580116271973
7808695,102558.99658203125,288.13999977111814,-94.00377153389962,0.5602431884765625,9.634267480468749,0.13407529296874998,-0.002931087319234494,0.018785605434282687,0.02651301700849979,12.313704490661621
7808752,102561.99951171875,288.13999977111814,-94.23140988359768,0.5458779785156249,9.662997900390625,0.143652099609375,-0.026113322301960132,0.0007993874625218768,-0.011857580152252994,12.359142303466797
7808809,102558.99658203125,288.13999977111814,-94.00377153389962,0.44053310546874996,9.739612353515625,0.12449848632812499,-0.024114855011045648,0.020384380099252114,-0.031042879252778037,12.359142303466797
7808867,102557.99560546875,288.13999977111814,-93.92789088464706,0.4070142822265625,9.821015209960937,0.0718260498046875,0.010258805487283567,-0.040502298447874195,-0.009192955363871514,12.359142303466797
7808924,102559.99755859375,288.13999977111814,-94.07965158347255,0.430956298828125,9.672574707031249,0.21068974609375,-0.027045942590354467,-0.014655436856246797,-0.007727412094365755,12.359142303466797
7808981,102560.99853515625,288.13999977111814,-94.15553103336588,0.47884033203125,9.629479077148437,0.06703764648437499,-0.0342404285827169,0.04063552724259461,0.036372126748946396,12.313704490661621
7809038,102561.99951171875,288.13999977111814,-94.23140988359768,0.5219359619140624,9.605537060546874,0.1771709228515625,-0.030110261044978305,-0.003996937182572221,0.06515007487958531,12.313704490661621
7809095,102558.99658203125,288.13999977111814,-94.00377153389962,0.51714755859375,9.629479077148437,0.1867477294921875,-0.053825419268889695,-0.010924961944453263,-0.03237519216711743,12.359142303466797
7809152,102561.99951171875,288.13999977111814,-94.23140988359768,0.33039982910156246,9.672574707031249,0.229843359375,-0.009326187279483833,0.045165389486872855,-0.046630935357121865,12.359142303466797
7809209,102557.99560546875,288.13999977111814,-93.92789088464706,0.39743747558593745,9.672574707031249,0.17238251953125,-0.03797090557510503,0.023182236803245916,-0.03410719770740188,12.313704490661621
7809267,102559.99755859375,288.13999977111814,-94.07965158347255,0.3591302490234375,9.595960253906249,0.1388636962890625,0.0005329249641781544,0.024647778512305724,-0.04130168369976431,12.359142303466797
7809324,102560.99853515625,288.13999977111814,-94.15553103336588,0.4740519287109375,9.672574707031249,0.2154781494140625,-0.020517610974567134,0.016387442396531244,-0.06528330783549494,12.359142303466797
7809381,102557.99560546875,288.13999977111814,-93.92789088464706,0.5506663818359374,9.572018237304688,0.1484405029296875,-0.010924961944453263,-0.018785605434282687,-0.031176110128093057,12.359142303466797
7809438,102560.99853515625,288.13999977111814,-94.15553103336588,0.51714755859375,9.619902270507811,0.16759411621093748,-0.018918836309597706,0.0033307809854768514,-0.02944410458780861,12.404580116271973
7809495,102556.99462890625,288.13999977111814,-93.85200963568772,0.584185205078125,9.682151513671874,0.1771709228515625,-0.038104134369825446,0.038104134369825446,-0.014522204940634477,12.359142303466797
7809552,102556.005859375,288.13999977111814,-93.77705317903128,0.39264907226562495,9.734823950195311,0.143652099609375,-0.027445635216299523,0.06541654079140455,0.01998468539271246,12.359142303466797
7809610,102559.99755859375,288.13999977111814,-94.07965158347255,0.2920926025390625,9.610325463867188,0.15322890625,-0.031709035709947736,0.046630935357121865,-0.007327718428123398,12.359142303466797
7809667,102559.99755859375,288.13999977111814,-94.07965158347255,0.43574470214843747,9.639055883789062,0.19153613281249998,-0.011724349276937976,0.0692802465785131,-0.016520674312143564,12.359142303466797
7809724,102558.99658203125,288.13999977111814,-94.00377153389962,0.5267243652343749,9.600748657226562,0.24899697265624998,-0.009459418154798853,-0.025713629676015076,0.04330015307127339,12.359142303466797
7809781,102556.99462890625,288.13999977111814,-93.85200963568772,0.32082302246093747,9.753977563476562,0.19153613281249998,-0.02118376743173683,-0.011324655610695619,-0.04036906549196457,12.359142303466797
7809838,102560.99853515625,288.13999977111814,-94.15553103336588,0.38307226562499996,9.710881933593749,0.15322890625,-0.03503981799579621,0.031842266585262756,-0.01985145451739744,12.359142303466797
7809895,102561.99951171875,288.15,-94.23140988359768,0.4836287353515625,9.591171850585937,0.2346317626953125,-0.017320061644628276,-0.004130168578035891,-0.04290045836473373,12.313704490661621
7809953,102560.99853515625,288.13999977111814,-94.15553103336588,0.45968671875,9.619902270507811,0.19632453613281248,-0.06328483846398585,-0.009725880945726191,0.009459418154798853,12.404580116271973
7810010,102560.99853515625,288.13999977111814,-94.15553103336588,0.39743747558593745,9.643844287109374,0.1388636962890625,-0.01279019940035003,-0.0021316998567126174,-0.01252373660942269,12.313704490661621
7810067,102558.99658203125,288.13999977111814,-94.00377153389962,0.354341845703125,9.658209497070311,0.12449848632812499,-0.019052067184912723,0.016120979605603904,-0.01412251127439212,12.359142303466797
7810124,102558.99658203125,288.13999977111814,-94.00377153389962,0.507570751953125,9.701305126953125,0.0909796630859375,-0.01798621810179797,0.014255743190004439,-0.0342404285827169,12.359142303466797
7810181,102558.99658203125,288.13999977111814,-94.00377153389962,0.4740519287109375,9.720458740234374,0.229843359375,-0.027179173465669487,0.01998468539271246,-0.07301071940971204,12.359142303466797
7810238,102561.99951171875,288.13999977111814,-94.23140988359768,0.4836287353515625,9.643844287109374,0.1388636962890625,-0.009326187279483833,0.0033307809854768514,0.0009326186629298021,12.359142303466797
7810295,102560.99853515625,288.13999977111814,-94.15553103336588,0.488417138671875,9.787496386718749,0.239420166015625,-0.016387442396531244,0.009459418154798853,-0.013989280399077101,12.359142303466797
7810352,102560.99853515625,288.15,-94.15553103336588,0.33518823242187495,9.619902270507811,0.16759411621093748,0.015987748730288884,-0.035439508541146664,0.0013323123941907406,12.313704490661621
7810410,102557.99560546875,288.15,-93.92789088464706,0.32561142578124996,9.715670336914062,0.12449848632812499,0.0001332312410445386,-0.017719754270573332,0.010125574611968549,12.359142303466797
7810467,102558.99658203125,288.15,-94.00377153389962,0.4261678955078125,9.706093530273437,0.181959326171875,-0.023182236803245916,0.020251149223937098,-0.007860642969680774,12.359142303466797
7810524,102556.99462890625,288.15,-93.85200963568772,0.51714755859375,9.672574707031249,0.1867477294921875,-0.012124042943180334,-0.008127105760608112,-0.009192955363871514,12.359142303466797
7810581,102558.99658203125,288.15,-94.00377153389962,0.45968671875,9.6151138671875,0.17238251953125,-0.012257273818495352,-0.006261868304711345,-0.06115314029775634,12.313704490661621
7810638,102557.99560546875,288.15,-93.92789088464706,0.5506663818359374,9.701305126953125,0.076614453125,-0.023182236803245916,0.019584992766767402,-0.024248085886360668,12.313704490661621
7810695,102558.99658203125,288.15,-94.00377153389962,0.488417138671875,9.706093530273437,0.0909796630859375,0.00706125563719606,0.004796324515056936,-0.022782542096706257,12.313704490661621
7810752,102561.99951171875,288.15,-94.23140988359768,0.4740519287109375,9.667786303710937,0.27293898925781246,-0.02837825342409926,0.01572128593936155,-0.04090198899322465,12.313704490661621
7810810,102558.99658203125,288.15,-94.00377153389962,0.373495458984375,9.682151513671874,0.13407529296874998,-0.04276722957001332,0.013189893066592386,-0.004663093639741917,12.313704490661621
7810867,102557.99560546875,288.15,-93.92789088464706,0.507570751953125,9.715670336914062,0.2442085693359375,-0.02504747321884538,-0.0010658499283563087,0.009326187279483833,12.268266677856445
7810924,102560.99853515625,288.15,-94.15553103336588,0.488417138671875,9.710881933593749,0.1197100830078125,-0.018519141603058047,0.014255743190004439,-0.04156814545039434,12.313704490661621
7810981,102560.99853515625,288.15,-94.15553103336588,0.38786066894531246,9.725247143554688,0.086191259765625,-0.021450229182366866,0.019052067184912723,-0.014921898606876833,12.359142303466797
7811038,102558.99658203125,288.15,-94.00377153389962,0.5027823486328125,9.715670336914062,0.201112939453125,0.004663093639741917,-0.02637978613318477,0.006794793366417372,12.359142303466797
7811095,102560.99853515625,288.15,-94.15553103336588,0.3687070556640625,9.715670336914062,0.16280571289062498,-0.01265696748473771,0.013323123941907405,0.018385910727743027,12.313704490661621
7811152,102560.99853515625,288.15,-94.15553103336588,0.4261678955078125,9.591171850585937,0.239420166015625,-0.024381316761675684,0.04489892773624282,-0.005995406033932657,12.359142303466797
7811209,102560.99853515625,288.15,-94.15553103336588,0.40222587890625,9.595960253906249,0.09576806640624999,-0.04996171348178114,-0.013323123941907405,-0.027578866091614543,12.313704490661621
7811267,102560.99853515625,288.15,-94.15553103336588,0.5267243652343749,9.672574707031249,0.2825157958984375,-0.009059724488556496,0.018519141603058047,-0.04609800769467259,12.313704490661621
7811324,102558.99658203125,288.15,-94.00377153389962,0.3016694091796875,9.65342109375,0.1867477294921875,-0.02997703016966329,0.0,0.03064318454623838,12.359142303466797
7811381,102557.99560546875,288.15,-93.92789088464706,0.47884033203125,9.749189160156249,0.1484405029296875,-0.018785605434282687,0.05076110289486046,0.009592649030113871,12.313704490661621
7811438,102559.99755859375,288.15,-94.07965158347255,0.4070142822265625,9.682151513671874,0.16759411621093748,-0.04769678235964202,0.005862174638468988,0.015854517854973868,12.359142303466797
7811495,102564.00146484375,288.15,-94.38316578509483,0.488417138671875,9.629479077148437,0.09576806640624999,-0.019584992766767402,-0.012124042943180334,0.014655436856246797,12.359142303466797
7811552,102564.00146484375,288.15,-94.38316578509483,0.38786066894531246,9.773131176757811,0.0526724365234375,-0.03344104125023218,0.006794793366417372,-0.011324655610695619,12.313704490661621
7811609,102558.99658203125,288.15,-94.00377153389962,0.5123591552734374,9.485826977539062,0.13407529296874998,-0.0006661561970953703,0.023049003847336293,0.01545482418873151,12.359142303466797
7811666,102561.99951171875,288.15,-94.23140988359768,0.4070142822265625,9.572018237304688,0.17238251953125,-0.030376722795608345,0.0314425718787231,-0.014255743190004439,12.313704490661621
7811724,102560.99853515625,288.15,-94.15553103336588,0.507570751953125,9.667786303710937,0.19153613281249998,-0.02211638563953656,0.00985911182104121,-0.024114855011045648,12.359142303466797
7811781,102561.99951171875,288.15,-94.23140988359768,0.354341845703125,9.624690673828125,0.22505495605468748,0.01985145451739744,0.010791730028840943,-0.03437365945803191,12.359142303466797
7811838,102557.99560546875,288.15,-93.92789088464706,0.45968671875,9.624690673828125,0.26815058593749996,-0.036372126748946396,0.030110261044978305,-0.0017320061904702601,12.359142303466797
7811895,102559.99755859375,288.15,-94.07965158347255,0.5602431884765625,9.629479077148437,0.201112939453125,-0.017852987226482955,0.002264931122139124,0.008926493613241477,12.359142303466797
7811952,102560.99853515625,288.15,-94.15553103336588,0.3591302490234375,9.619902270507811,0.1292868896484375,-0.03090964837746302,0.016387442396531244,0.010525268278210905,12.359142303466797
7812009,102560.99853515625,288.15,-94.15553103336588,0.3016694091796875,9.662997900390625,0.08140285644531249,-0.03464012328925655,0.0031975498500875074,-0.041834611362213586,12.313704490661621
7812067,102557.99560546875,288.15,-93.92789088464706,0.5458779785156249,9.701305126953125,0.1149216796875,-0.03437365945803191,-0.0003996937312609384,0.01252373660942269,12.404580116271973
7812124,102558.99658203125,288.15,-94.00377153389962,0.33039982910156246,9.6151138671875,0.22026655273437498,-0.0069280247618810405,-0.02651301700849979,-0.024914242343530364,12.404580116271973
7812181,102563.00048828125,288.1600002288818,-94.30728813416796,0.38786066894531246,9.634267480468749,0.201112939453125,0.004663093639741917,0.011591118401622958,0.0027978559237708247,12.359142303466797
7812238,102556.99462890625,288.15,-93.85200963568772,0.49799394531249996,9.639055883789062,0.1580173095703125,-0.047030625902472326,-0.010791730028840943,-0.0015987749250437537,12.404580116271973
7812295,102557.99560546875,288.15,-93.92789088464706,0.5315127685546874,9.624690673828125,0.12449848632812499,-0.0083935680313868,0.05435834693133897,0.0007993874625218768,12.313704490661621
7812352,102556.99462890625,288.15,-93.85200963568772,0.3687070556640625,9.686939916992188,0.1771709228515625,-0.02997703016966329,0.03570597445296591,0.0006661561970953703,12.359142303466797
7812410,102564.00146484375,288.15,-94.38316578509483,0.39264907226562495,9.6917283203125,0.16759411621093748,-0.02131699830705185,0.017719754270573332,-0.004130168578035891,12.359142303466797
7812467,102560.99853515625,288.15,-94.15553103336588,0.45010991210937495,9.562441430664062,0.16759411621093748,-0.0018652373258596041,-0.004796324515056936,-0.007327718428123398,12.268266677856445
7812524,102558.99658203125,288.15,-94.00377153389962,0.4213794921875,9.710881933593749,0.2154781494140625,-0.046630935357121865,0.03064318454623838,-0.007727412094365755,12.313704490661621
7812581,102558.99658203125,288.15,-94.00377153389962,0.4165910888671875,9.658209497070311,0.2825157958984375,-0.03317457949960215,0.0019984685912861106,-0.022915772972021277,12.313704490661621
7812638,102558.99658203125,288.15,-94.00377153389962,0.38786066894531246,9.567229833984374,0.2537853759765625,-0.06181929675492604,0.031709035709947736,-0.023981624135730628,12.313704490661621
7812695,102559.99755859375,288.1600002288818,-94.07965158347255,0.45010991210937495,9.662997900390625,0.16759411621093748,-0.037038283206116095,0.011457886486010638,0.02997703016966329,12.359142303466797
7812753,102560.99853515625,288.1600002288818,-94.15553103336588,0.45489831542968745,9.725247143554688,0.08140285644531249,-0.027312404340984506,-0.001199081128764234,0.03503981799579621,12.359142303466797
7812810,102560.99853515625,288.1600002288818,-94.15553103336588,0.39743747558593745,9.667786303710937,0.1484405029296875,-0.020917305681106793,0.014255743190004439,-0.0021316998567126174,12.359142303466797
7812867,102560.99853515625,288.1600002288818,-94.15553103336588,0.45968671875,9.610325463867188,0.1867477294921875,-0.029044409881268954,0.00706125563719606,-0.03330781037491716,12.359142303466797
7812924,102563.00048828125,288.1600002288818,-94.30728813416796,0.373495458984375,9.763554370117188,0.17238251953125,-0.013456354817222424,0.005862174638468988,0.0009326186629298021,12.359142303466797
7812981,102558.99658203125,288.1600002288818,-94.00377153389962,0.36391865234375,9.777919580078125,0.0909796630859375,-0.015588055064046528,-0.03290811566837751,0.006528330575490033,12.404580116271973
7813038,102557.99560546875,288.1600002288818,-93.92789088464706,0.45489831542968745,9.658209497070311,0.11013327636718749,0.010658499153525925,0.018652374558967667,-0.03397396683208686,12.313704490661621
7813096,102561.99951171875,288.1600002288818,-94.23140988359768,0.469263525390625,9.629479077148437,0.2059013427734375,0.028777948130638914,0.0,0.003996937182572221,12.359142303466797
7813153,102558.99658203125,288.15,-94.00377153389962,0.354341845703125,9.600748657226562,0.181959326171875,-0.0335742721255472,-0.018652374558967667,-0.01412251127439212,12.359142303466797
7813210,102558.99658203125,288.1600002288818,-94.00377153389962,0.4740519287109375,9.662997900390625,0.1292868896484375,-0.01825267985242801,-0.028911179005953934,0.01265696748473771,12.359142303466797
7813267,102560.99853515625,288.15,-94.15553103336588,0.39743747558593745,9.595960253906249,0.201112939453125,-0.03250842304243245,0.002931087319234494,-0.01412251127439212,12.313704490661621
7813324,102557.99560546875,288.15,-93.92789088464706,0.37828386230468747,9.80665,0.16280571289062498,-0.019584992766767402,0.022915772972021277,-0.013456354817222424,12.313704490661621
7813381,102560.99853515625,288.15,-94.15553103336588,0.5315127685546874,9.648632690429688,0.0909796630859375,-0.003064318454623838,0.05848851446907756,-0.009725880945726191,12.313704490661621
7813439,102556.005859375,288.1600002288818,-93.77705317903128,0.3591302490234375,9.662997900390625,0.2059013427734375,-0.014255743190004439,0.013856049523762081,0.0033307809854768514,12.404580116271973
7813496,102559.99755859375,288.1600002288818,-94.07965158347255,0.45489831542968745,9.643844287109374,0.15322890625,-0.043833076572533464,0.020917305681106793,0.012257273818495352,12.313704490661621
7813553,102558.99658203125,288.1600002288818,-94.00377153389962,0.488417138671875,9.629479077148437,0.19153613281249998,-0.050228179393600386,0.027045942590354467,-0.004263399713425235,12.359142303466797
7813610,102563.00048828125,288.1600002288818,-94.30728813416796,0.4644751220703125,9.65342109375,0.033518823242187495,-0.024381316761675684,-0.025846860551330095,-0.06515007487958531,12.313704490661621
7813667,102560.99853515625,288.1600002288818,-94.15553103336588,0.43574470214843747,9.662997900390625,0.076614453125,-0.038770290826995145,0.024114855011045648,-0.05968759442750733,12.313704490661621
7813724,102560.99853515625,288.1600002288818,-94.15553103336588,0.411802685546875,9.576806640625,0.19153613281249998,-0.013456354817222424,-0.03130934100340808,0.022915772972021277,12.359142303466797
7813782,102558.99658203125,288.1600002288818,-94.00377153389962,0.49799394531249996,9.576806640625,0.22505495605468748,-0.008793261697629158,-0.04290045836473373,0.02944410458780861,12.359142303466797
7813839,102558.99658203125,288.1600002288818,-94.00377153389962,0.49320554199218747,9.648632690429688,0.1484405029296875,-0.0027978559237708247,0.047297091814291564,-0.03517304679051663,12.359142303466797
7813896,102561.99951171875,288.1600002288818,-94.23140988359768,0.45010991210937495,9.672574707031249,0.105344873046875,-0.024647778512305724,0.03464012328925655,-0.024248085886360668,12.359142303466797
7813953,102558.99658203125,288.1600002288818,-94.00377153389962,0.411802685546875,9.763554370117188,0.21068974609375,-0.04982848468706073,-0.03903675257762518,0.013056661150980066,12.313704490661621
7814010,102555.0048828125,288.1600002288818,-93.70117073795477,0.411802685546875,9.725247143554688,0.076614453125,-0.014788667731561815,0.007727412094365755,0.004529862244278248,12.313704490661621
7814067,102558.99658203125,288.1600002288818,-94.00377153389962,0.39264907226562495,9.662997900390625,0.2059013427734375,-0.04303369132064335,0.005462480972226631,-0.0027978559237708247,12.359142303466797
7814124,102556.99462890625,288.1600002288818,-93.85200963568772,0.3591302490234375,9.610325463867188,0.11013327636718749,-0.018785605434282687,0.026912709634444847,-0.05435834693133897,12.313704490661621
7814182,102561.99951171875,288.1600002288818,-94.23140988359768,0.45968671875,9.672574707031249,0.1771709228515625,-0.013989280399077101,0.05622358334693844,-0.07127871595002219,12.359142303466797
7814239,102557.99560546875,288.1600002288818,-93.92789088464706,0.4836287353515625,9.672574707031249,0.21068974609375,0.020517610974567134,-0.001465543659617247,-0.02971056633843865,12.313704490661621
7814296,102561.99951171875,288.1600002288818,-94.23140988359768,0.5027823486328125,9.672574707031249,0.19632453613281248,-0.006794793366417372,0.008260337156071782,0.005196018181299293,12.359142303466797
7814353,102558.99658203125,288.1600002288818,-94.00377153389962,0.4740519287109375,9.682151513671874,0.181959326171875,-0.0003996937312609384,0.05475804163787863,0.019052067184912723,12.359142303466797
7814410,102560.99853515625,288.1600002288818,-94.15553103336588,0.51714755859375,9.773131176757811,0.09576806640624999,-0.00999234269635623,-0.011724349276937976,0.02544716792538504,12.359142303466797
7814467,102556.99462890625,288.1600002288818,-93.85200963568772,0.40222587890625,9.648632690429688,0.0718260498046875,-0.0426339966141037,-0.017586523395258315,-0.036372126748946396,12.313704490661621
7814524,102556.99462890625,288.1600002288818,-93.85200963568772,0.44053310546874996,9.749189160156249,0.3495534423828125,-0.03064318454623838,0.028511486380008878,0.009059724488556496,12.313704490661621
7814581,102558.99658203125,288.1600002288818,-94.00377153389962,0.4165910888671875,9.658209497070311,0.16759411621093748,0.0019984685912861106,0.0010658499283563087,-0.004796324515056936,12.359142303466797
7814638,102556.99462890625,288.1600002288818,-93.85200963568772,0.4165910888671875,9.749189160156249,0.2059013427734375,-0.023182236803245916,0.03397396683208686,0.0009326186629298021,12.359142303466797
